phase,pid,N_OPTIONS,total_trials,true_set_size,max_guess_size,trial_id,true_set,guess,guess_size,overlap,correct,guess_number,RT,current_time,start_time,uniqueid,opts_remaining_prev,opts_remaining_post,all_within,all_independent,all_wn_or_ind
TEST,4669595,12,10,3,6,1,C000001001100,C111111000000,6,1,False,1,11936,1714063098535,1714063073617,debug7EB27:debugsgEj3,220,90,1,1,1
TEST,4669595,12,10,3,6,1,C000001001100,C000001111110,6,3,False,2,7011,1714063106348,1714063073617,debug7EB27:debugsgEj3,90,10,0,0,0
TEST,4669595,12,10,3,6,1,C000001001100,C000000111100,4,2,False,3,16354,1714063123515,1714063073617,debug7EB27:debugsgEj3,10,6,1,0,1
TEST,4669595,12,10,3,6,1,C000001001100,C000000011110,4,2,False,4,11161,1714063135491,1714063073617,debug7EB27:debugsgEj3,6,3,1,0,1
TEST,4669595,12,10,3,6,1,C000001001100,C000001011100,4,3,False,5,25224,1714063161518,1714063073617,debug7EB27:debugsgEj3,3,3,1,0,1
TEST,4669595,12,10,3,6,1,C000001001100,C000001011000,3,2,False,6,2475,1714063164809,1714063073617,debug7EB27:debugsgEj3,3,2,1,0,1
TEST,4669595,12,10,3,6,1,C000001001100,C000001010100,3,2,False,7,2741,1714063168358,1714063073617,debug7EB27:debugsgEj3,2,1,1,0,1
TEST,4669595,12,10,3,6,1,C000001001100,C000001001100,3,3,True,8,1887,1714063171051,1714063073617,debug7EB27:debugsgEj3,1,1,1,0,1
TEST,4669595,12,10,3,6,2,C001100010000,C000000111111,6,1,False,1,3303,1714063178376,1714063073617,debug7EB27:debugsgEj3,220,90,1,1,1
TEST,4669595,12,10,3,6,2,C001100010000,C011111100000,6,2,False,2,10525,1714063189710,1714063073617,debug7EB27:debugsgEj3,90,55,0,0,0
TEST,4669595,12,10,3,6,2,C001100010000,C100000100000,2,0,False,3,63112,1714063253631,1714063073617,debug7EB27:debugsgEj3,55,50,0,0,0
TEST,4669595,12,10,3,6,2,C001100010000,C000111000000,3,1,False,4,13948,1714063268391,1714063073617,debug7EB27:debugsgEj3,50,30,1,0,1
TEST,4669595,12,10,3,6,2,C001100010000,C010010000100,3,0,False,5,6377,1714063275569,1714063073617,debug7EB27:debugsgEj3,30,8,0,0,0
TEST,4669595,12,10,3,6,2,C001100010000,C001001001000,3,1,False,6,12331,1714063288708,1714063073617,debug7EB27:debugsgEj3,8,3,0,0,0
TEST,4669595,12,10,3,6,2,C001100010000,C001100010000,3,3,True,7,4304,1714063293813,1714063073617,debug7EB27:debugsgEj3,3,1,0,0,0
TEST,4669595,12,10,3,6,3,C100010000001,C111111000000,6,2,False,1,2928,1714063300704,1714063073617,debug7EB27:debugsgEj3,220,90,1,1,1
TEST,4669595,12,10,3,6,3,C100010000001,C010101001000,4,0,False,2,5198,1714063306715,1714063073617,debug7EB27:debugsgEj3,90,15,0,0,0
TEST,4669595,12,10,3,6,3,C100010000001,C101000100000,3,1,False,3,4070,1714063311598,1714063073617,debug7EB27:debugsgEj3,15,8,0,0,0
TEST,4669595,12,10,3,6,3,C100010000001,C000010010000,2,1,False,4,6924,1714063319337,1714063073617,debug7EB27:debugsgEj3,8,6,0,0,0
TEST,4669595,12,10,3,6,3,C100010000001,C000000000111,3,1,False,5,29223,1714063349366,1714063073617,debug7EB27:debugsgEj3,6,6,0,1,1
TEST,4669595,12,10,3,6,3,C100010000001,C001010000100,3,1,False,6,29806,1714063379981,1714063073617,debug7EB27:debugsgEj3,6,2,0,0,0
TEST,4669595,12,10,3,6,3,C100010000001,C100010000001,3,3,True,7,4450,1714063385248,1714063073617,debug7EB27:debugsgEj3,2,1,0,0,0
TEST,4669595,12,10,3,6,4,C000110000010,C111111000000,6,2,False,1,3150,1714063391668,1714063073617,debug7EB27:debugsgEj3,220,90,1,1,1
TEST,4669595,12,10,3,6,4,C000110000010,C101010010000,4,1,False,2,10670,1714063403148,1714063073617,debug7EB27:debugsgEj3,90,48,0,0,0
TEST,4669595,12,10,3,6,4,C000110000010,C010101001000,4,1,False,3,3883,1714063407834,1714063073617,debug7EB27:debugsgEj3,48,36,0,0,0
TEST,4669595,12,10,3,6,4,C000110000010,C000000000111,3,1,False,4,8117,1714063416753,1714063073617,debug7EB27:debugsgEj3,36,27,0,1,1
TEST,4669595,12,10,3,6,4,C000110000010,C000111000000,3,2,False,5,12413,1714063429975,1714063073617,debug7EB27:debugsgEj3,27,6,1,0,1
TEST,4669595,12,10,3,6,4,C000110000010,C000101000100,3,1,False,6,3523,1714063434383,1714063073617,debug7EB27:debugsgEj3,6,4,0,0,0
TEST,4669595,12,10,3,6,4,C000110000010,C000110000010,3,3,True,7,7397,1714063442596,1714063073617,debug7EB27:debugsgEj3,4,1,0,0,0
TEST,4669595,12,10,3,6,5,C101000000010,C111111000000,6,2,False,1,3282,1714063449233,1714063073617,debug7EB27:debugsgEj3,220,90,1,1,1
TEST,4669595,12,10,3,6,5,C101000000010,C101010000000,3,2,False,2,8445,1714063458482,1714063073617,debug7EB27:debugsgEj3,90,18,1,0,1
TEST,4669595,12,10,3,6,5,C101000000010,C101000111100,6,2,False,3,5949,1714063465239,1714063073617,debug7EB27:debugsgEj3,18,10,0,0,0
TEST,4669595,12,10,3,6,5,C101000000010,C000010000011,3,1,False,4,5772,1714063471817,1714063073617,debug7EB27:debugsgEj3,10,10,0,0,0
TEST,4669595,12,10,3,6,5,C101000000010,C101000000011,4,3,False,5,19657,1714063492284,1714063073617,debug7EB27:debugsgEj3,10,2,0,0,0
TEST,4669595,12,10,3,6,5,C101000000010,C101000000010,3,3,True,6,4146,1714063497242,1714063073617,debug7EB27:debugsgEj3,2,1,1,0,1
TEST,4669595,12,10,3,6,6,C100000000011,C111111000000,6,1,False,1,2795,1714063503271,1714063073617,debug7EB27:debugsgEj3,220,90,1,1,1
TEST,4669595,12,10,3,6,6,C100000000011,C000000010101,3,1,False,2,3741,1714063507816,1714063073617,debug7EB27:debugsgEj3,90,54,0,1,1
TEST,4669595,12,10,3,6,6,C100000000011,C000000110011,4,2,False,3,6887,1714063515512,1714063073617,debug7EB27:debugsgEj3,54,24,0,0,0
TEST,4669595,12,10,3,6,6,C100000000011,C000001010001,3,1,False,4,4748,1714063521075,1714063073617,debug7EB27:debugsgEj3,24,20,0,0,0
TEST,4669595,12,10,3,6,6,C100000000011,C000010100001,3,1,False,5,5027,1714063526905,1714063073617,debug7EB27:debugsgEj3,20,9,0,0,0
TEST,4669595,12,10,3,6,6,C100000000011,C111100000000,4,1,False,6,25627,1714063553347,1714063073617,debug7EB27:debugsgEj3,9,8,1,0,1
TEST,4669595,12,10,3,6,6,C100000000011,C000100100001,3,1,False,7,16920,1714063571080,1714063073617,debug7EB27:debugsgEj3,8,6,0,0,0
TEST,4669595,12,10,3,6,6,C100000000011,C000100000011,3,2,False,8,45294,1714063617180,1714063073617,debug7EB27:debugsgEj3,6,3,0,0,0
TEST,4669595,12,10,3,6,6,C100000000011,C001000000011,3,2,False,9,1784,1714063619765,1714063073617,debug7EB27:debugsgEj3,3,2,0,0,0
TEST,4669595,12,10,3,6,6,C100000000011,C010000000011,3,2,False,10,2381,1714063622955,1714063073617,debug7EB27:debugsgEj3,2,1,0,0,0
TEST,4669595,12,10,3,6,6,C100000000011,C100000000011,3,3,True,11,1852,1714063625616,1714063073617,debug7EB27:debugsgEj3,1,1,0,0,0
TEST,4669595,12,10,3,6,7,C001010100000,C111111000000,6,2,False,1,2328,1714063631369,1714063073617,debug7EB27:debugsgEj3,220,90,1,1,1
TEST,4669595,12,10,3,6,7,C001010100000,C101010000000,3,2,False,2,3101,1714063635284,1714063073617,debug7EB27:debugsgEj3,90,18,1,0,1
TEST,4669595,12,10,3,6,7,C001010100000,C101000100000,3,2,False,3,3232,1714063639326,1714063073617,debug7EB27:debugsgEj3,18,7,0,0,0
TEST,4669595,12,10,3,6,7,C001010100000,C101000010000,3,1,False,4,1911,1714063642045,1714063073617,debug7EB27:debugsgEj3,7,2,0,0,0
TEST,4669595,12,10,3,6,7,C001010100000,C100010100000,3,2,False,5,7990,1714063650875,1714063073617,debug7EB27:debugsgEj3,2,1,0,0,0
TEST,4669595,12,10,3,6,7,C001010100000,C001010100000,3,3,True,6,5013,1714063656696,1714063073617,debug7EB27:debugsgEj3,1,1,0,0,0
TEST,4669595,12,10,3,6,8,C000001000110,C111111000000,6,1,False,1,3210,1714063662833,1714063073617,debug7EB27:debugsgEj3,220,90,1,1,1
TEST,4669595,12,10,3,6,8,C000001000110,C000000010101,3,1,False,2,3128,1714063666773,1714063073617,debug7EB27:debugsgEj3,90,54,0,1,1
TEST,4669595,12,10,3,6,8,C000001000110,C000000000111,3,2,False,3,16091,1714063683678,1714063073617,debug7EB27:debugsgEj3,54,12,0,0,0
TEST,4669595,12,10,3,6,8,C000001000110,C000001000011,3,2,False,4,7400,1714063691880,1714063073617,debug7EB27:debugsgEj3,12,6,0,0,0
TEST,4669595,12,10,3,6,8,C000001000110,C000010000011,3,1,False,5,2397,1714063695080,1714063073617,debug7EB27:debugsgEj3,6,1,0,0,0
TEST,4669595,12,10,3,6,8,C000001000110,C000001000110,3,3,True,6,3184,1714063699069,1714063073617,debug7EB27:debugsgEj3,1,1,0,0,0
TEST,4669595,12,10,3,6,9,C000001001010,C111111000000,6,1,False,1,3299,1714063706023,1714063073617,debug7EB27:debugsgEj3,220,90,1,1,1
TEST,4669595,12,10,3,6,9,C000001001010,C000000010101,3,0,False,2,1902,1714063708737,1714063073617,debug7EB27:debugsgEj3,90,18,0,1,1
TEST,4669595,12,10,3,6,9,C000001001010,C000000101010,3,2,False,3,3024,1714063712623,1714063073617,debug7EB27:debugsgEj3,18,18,0,1,1
TEST,4669595,12,10,3,6,9,C000001001010,C000000100010,2,1,False,4,1579,1714063715008,1714063073617,debug7EB27:debugsgEj3,18,12,1,0,1
TEST,4669595,12,10,3,6,9,C000001001010,C000000001010,2,2,False,5,3328,1714063719146,1714063073617,debug7EB27:debugsgEj3,12,6,1,0,1
TEST,4669595,12,10,3,6,9,C000001001010,C010101000000,3,1,False,6,5501,1714063725463,1714063073617,debug7EB27:debugsgEj3,6,3,1,0,1
TEST,4669595,12,10,3,6,9,C000001001010,C000001001010,3,3,True,7,2374,1714063728648,1714063073617,debug7EB27:debugsgEj3,3,1,0,0,0
TEST,4669595,12,10,3,6,10,C110010000000,C111111000000,6,3,False,1,3498,1714063735399,1714063073617,debug7EB27:debugsgEj3,220,20,1,1,1
TEST,4669595,12,10,3,6,10,C110010000000,C111000000000,3,2,False,2,1892,1714063738122,1714063073617,debug7EB27:debugsgEj3,20,9,1,0,1
TEST,4669595,12,10,3,6,10,C110010000000,C011000000000,2,1,False,3,2272,1714063741204,1714063073617,debug7EB27:debugsgEj3,9,6,1,0,1
TEST,4669595,12,10,3,6,10,C110010000000,C110000000000,2,2,False,4,1206,1714063743217,1714063073617,debug7EB27:debugsgEj3,6,3,1,0,1
TEST,4669595,12,10,3,6,10,C110010000000,C110010000000,3,3,True,5,2136,1714063746156,1714063073617,debug7EB27:debugsgEj3,3,1,1,0,1
TEST,2824183,12,10,3,6,1,C011000100000,C111111000000,6,2,False,1,10696,1714063316146,1714063250367,debugxIeI0:debugZKIEy,220,90,1,1,1
TEST,2824183,12,10,3,6,1,C011000100000,C111000000000,3,2,False,2,8843,1714063325798,1714063250367,debugxIeI0:debugZKIEy,90,18,1,0,1
TEST,2824183,12,10,3,6,1,C011000100000,C101000000000,2,1,False,3,2037,1714063328637,1714063250367,debugxIeI0:debugZKIEy,18,12,1,0,1
TEST,2824183,12,10,3,6,1,C011000100000,C110000000000,2,1,False,4,2305,1714063331753,1714063250367,debugxIeI0:debugZKIEy,12,6,1,0,1
TEST,2824183,12,10,3,6,1,C011000100000,C011000111000,5,3,False,5,18761,1714063351329,1714063250367,debugxIeI0:debugZKIEy,6,3,0,0,0
TEST,2824183,12,10,3,6,1,C011000100000,C011000010000,3,2,False,6,4765,1714063356902,1714063250367,debugxIeI0:debugZKIEy,3,2,1,0,1
TEST,2824183,12,10,3,6,1,C011000100000,C011000100000,3,3,True,7,3021,1714063360726,1714063250367,debugxIeI0:debugZKIEy,2,1,1,0,1
TEST,2824183,12,10,3,6,2,C001000000101,C111111000000,6,1,False,1,5446,1714063371032,1714063250367,debugxIeI0:debugZKIEy,220,90,1,1,1
TEST,2824183,12,10,3,6,2,C001000000101,C000000111000,3,0,False,2,10408,1714063382246,1714063250367,debugxIeI0:debugZKIEy,90,18,0,1,1
TEST,2824183,12,10,3,6,2,C001000000101,C000000000101,2,2,False,3,12646,1714063395694,1714063250367,debugxIeI0:debugZKIEy,18,6,0,1,1
TEST,2824183,12,10,3,6,2,C001000000101,C000111000101,5,2,False,4,5361,1714063401862,1714063250367,debugxIeI0:debugZKIEy,6,3,0,0,0
TEST,2824183,12,10,3,6,2,C001000000101,C001000000101,3,3,True,5,3980,1714063406649,1714063250367,debugxIeI0:debugZKIEy,3,1,0,0,0
TEST,2824183,12,10,3,6,3,C100010000100,C111111000000,6,2,False,1,4350,1714063414457,1714063250367,debugxIeI0:debugZKIEy,220,90,1,1,1
TEST,2824183,12,10,3,6,3,C100010000100,C000111000000,3,1,False,2,2586,1714063417855,1714063250367,debugxIeI0:debugZKIEy,90,54,1,0,1
TEST,2824183,12,10,3,6,3,C100010000100,C000000111000,3,0,False,3,7503,1714063426159,1714063250367,debugxIeI0:debugZKIEy,54,27,0,1,1
TEST,2824183,12,10,3,6,3,C100010000100,C000000000010,1,0,False,4,8183,1714063435144,1714063250367,debugxIeI0:debugZKIEy,27,18,0,1,1
TEST,2824183,12,10,3,6,3,C100010000100,C000000000100,1,1,False,5,1045,1714063436998,1714063250367,debugxIeI0:debugZKIEy,18,9,0,1,1
TEST,2824183,12,10,3,6,3,C100010000100,C000010000100,2,2,False,6,3243,1714063441049,1714063250367,debugxIeI0:debugZKIEy,9,3,0,0,0
TEST,2824183,12,10,3,6,3,C100010000100,C010010000100,3,2,False,7,3056,1714063444919,1714063250367,debugxIeI0:debugZKIEy,3,2,0,0,0
TEST,2824183,12,10,3,6,3,C100010000100,C001010000100,3,2,False,8,2310,1714063448030,1714063250367,debugxIeI0:debugZKIEy,2,1,0,0,0
TEST,2824183,12,10,3,6,3,C100010000100,C100010000100,3,3,True,9,2577,1714063451414,1714063250367,debugxIeI0:debugZKIEy,1,1,0,0,0
TEST,2824183,12,10,3,6,4,C000010000110,C111111000000,6,1,False,1,5626,1714063461417,1714063250367,debugxIeI0:debugZKIEy,220,90,1,1,1
TEST,2824183,12,10,3,6,4,C000010000110,C000000111000,3,0,False,2,2638,1714063464855,1714063250367,debugxIeI0:debugZKIEy,90,18,0,1,1
TEST,2824183,12,10,3,6,4,C000010000110,C000000000110,2,2,False,3,1409,1714063467070,1714063250367,debugxIeI0:debugZKIEy,18,6,0,1,1
TEST,2824183,12,10,3,6,4,C000010000110,C000111000110,5,3,False,4,9856,1714063477729,1714063250367,debugxIeI0:debugZKIEy,6,3,0,0,0
TEST,2824183,12,10,3,6,4,C000010000110,C000010000110,3,3,True,5,2432,1714063480966,1714063250367,debugxIeI0:debugZKIEy,3,1,1,0,1
TEST,2824183,12,10,3,6,5,C000100001100,C111111000000,6,1,False,1,3005,1714063487455,1714063250367,debugxIeI0:debugZKIEy,220,90,1,1,1
TEST,2824183,12,10,3,6,5,C000100001100,C000000111000,3,1,False,2,2509,1714063490769,1714063250367,debugxIeI0:debugZKIEy,90,54,0,1,1
TEST,2824183,12,10,3,6,5,C000100001100,C000000000010,1,0,False,3,3112,1714063494689,1714063250367,debugxIeI0:debugZKIEy,54,36,0,1,1
TEST,2824183,12,10,3,6,5,C000100001100,C000000000100,1,1,False,4,766,1714063496262,1714063250367,debugxIeI0:debugZKIEy,36,18,0,1,1
TEST,2824183,12,10,3,6,5,C000100001100,C000000010100,2,1,False,5,1542,1714063498606,1714063250367,debugxIeI0:debugZKIEy,18,12,0,0,0
TEST,2824183,12,10,3,6,5,C000100001100,C000000001100,2,2,False,6,1298,1714063500705,1714063250367,debugxIeI0:debugZKIEy,12,6,0,0,0
TEST,2824183,12,10,3,6,5,C000100001100,C000111001100,5,3,False,7,4523,1714063506030,1714063250367,debugxIeI0:debugZKIEy,6,3,0,0,0
TEST,2824183,12,10,3,6,5,C000100001100,C000010001100,3,2,False,8,2566,1714063509409,1714063250367,debugxIeI0:debugZKIEy,3,2,1,0,1
TEST,2824183,12,10,3,6,5,C000100001100,C000001001100,3,2,False,9,2148,1714063512361,1714063250367,debugxIeI0:debugZKIEy,2,1,1,0,1
TEST,2824183,12,10,3,6,5,C000100001100,C000100001100,3,3,True,10,2029,1714063515193,1714063250367,debugxIeI0:debugZKIEy,1,1,1,0,1
TEST,2824183,12,10,3,6,6,C010000100001,C111111000000,6,1,False,1,3388,1714063522223,1714063250367,debugxIeI0:debugZKIEy,220,90,1,1,1
TEST,2824183,12,10,3,6,6,C010000100001,C000000111000,3,1,False,2,3204,1714063526231,1714063250367,debugxIeI0:debugZKIEy,90,54,0,1,1
TEST,2824183,12,10,3,6,6,C010000100001,C000000010000,1,0,False,3,5861,1714063532896,1714063250367,debugxIeI0:debugZKIEy,54,36,1,0,1
TEST,2824183,12,10,3,6,6,C010000100001,C000000001000,1,0,False,4,912,1714063534616,1714063250367,debugxIeI0:debugZKIEy,36,18,1,0,1
TEST,2824183,12,10,3,6,6,C010000100001,C000000100010,2,1,False,5,3866,1714063539289,1714063250367,debugxIeI0:debugZKIEy,18,12,0,0,0
TEST,2824183,12,10,3,6,6,C010000100001,C000000100100,2,1,False,6,1859,1714063541952,1714063250367,debugxIeI0:debugZKIEy,12,6,0,0,0
TEST,2824183,12,10,3,6,6,C010000100001,C000111100001,5,2,False,7,5353,1714063548112,1714063250367,debugxIeI0:debugZKIEy,6,3,0,0,0
TEST,2824183,12,10,3,6,6,C010000100001,C001000100001,3,2,False,8,2372,1714063551288,1714063250367,debugxIeI0:debugZKIEy,3,2,0,0,0
TEST,2824183,12,10,3,6,6,C010000100001,C010000100001,3,3,True,9,2868,1714063554968,1714063250367,debugxIeI0:debugZKIEy,2,1,0,0,0
TEST,2824183,12,10,3,6,7,C100001000010,C111111000000,6,2,False,1,3635,1714063562082,1714063250367,debugxIeI0:debugZKIEy,220,90,1,1,1
TEST,2824183,12,10,3,6,7,C100001000010,C000111000000,3,1,False,2,2419,1714063565302,1714063250367,debugxIeI0:debugZKIEy,90,54,1,0,1
TEST,2824183,12,10,3,6,7,C100001000010,C000000111000,3,0,False,3,8370,1714063574473,1714063250367,debugxIeI0:debugZKIEy,54,27,0,1,1
TEST,2824183,12,10,3,6,7,C100001000010,C000000000100,1,0,False,4,1497,1714063576776,1714063250367,debugxIeI0:debugZKIEy,27,18,0,1,1
TEST,2824183,12,10,3,6,7,C100001000010,C000000000001,1,0,False,5,1481,1714063579062,1714063250367,debugxIeI0:debugZKIEy,18,9,0,1,1
TEST,2824183,12,10,3,6,7,C100001000010,C000010000010,2,1,False,6,2261,1714063582126,1714063250367,debugxIeI0:debugZKIEy,9,6,0,0,0
TEST,2824183,12,10,3,6,7,C100001000010,C000001000010,2,2,False,7,1742,1714063584679,1714063250367,debugxIeI0:debugZKIEy,6,3,0,0,0
TEST,2824183,12,10,3,6,7,C100001000010,C001001000010,3,2,False,8,3790,1714063589270,1714063250367,debugxIeI0:debugZKIEy,3,2,0,0,0
TEST,2824183,12,10,3,6,7,C100001000010,C010001000010,3,2,False,9,4146,1714063594223,1714063250367,debugxIeI0:debugZKIEy,2,1,0,0,0
TEST,2824183,12,10,3,6,7,C100001000010,C100001000010,3,3,True,10,2287,1714063597311,1714063250367,debugxIeI0:debugZKIEy,1,1,0,0,0
TEST,2824183,12,10,3,6,8,C100000010100,C111111000000,6,1,False,1,3481,1714063605461,1714063250367,debugxIeI0:debugZKIEy,220,90,1,1,1
TEST,2824183,12,10,3,6,8,C100000010100,C000000111000,3,1,False,2,2187,1714063608463,1714063250367,debugxIeI0:debugZKIEy,90,54,0,1,1
TEST,2824183,12,10,3,6,8,C100000010100,C000000000110,2,1,False,3,4829,1714063614096,1714063250367,debugxIeI0:debugZKIEy,54,36,0,1,1
TEST,2824183,12,10,3,6,8,C100000010100,C000000000011,2,0,False,4,2733,1714063617629,1714063250367,debugxIeI0:debugZKIEy,36,18,0,0,0
TEST,2824183,12,10,3,6,8,C100000010100,C000000100100,2,1,False,5,5278,1714063623716,1714063250367,debugxIeI0:debugZKIEy,18,12,0,0,0
TEST,2824183,12,10,3,6,8,C100000010100,C000000010100,2,2,False,6,1648,1714063626173,1714063250367,debugxIeI0:debugZKIEy,12,6,0,0,0
TEST,2824183,12,10,3,6,8,C100000010100,C000111010100,5,2,False,7,5881,1714063632861,1714063250367,debugxIeI0:debugZKIEy,6,3,0,0,0
TEST,2824183,12,10,3,6,8,C100000010100,C010000010100,3,2,False,8,3711,1714063637381,1714063250367,debugxIeI0:debugZKIEy,3,2,0,0,0
TEST,2824183,12,10,3,6,8,C100000010100,C100000010100,3,3,True,9,4488,1714063642678,1714063250367,debugxIeI0:debugZKIEy,2,1,0,0,0
TEST,2824183,12,10,3,6,9,C100010000010,C111111000000,6,2,False,1,3346,1714063650309,1714063250367,debugxIeI0:debugZKIEy,220,90,1,1,1
TEST,2824183,12,10,3,6,9,C100010000010,C000111000000,3,1,False,2,1755,1714063652870,1714063250367,debugxIeI0:debugZKIEy,90,54,1,0,1
TEST,2824183,12,10,3,6,9,C100010000010,C000000111000,3,0,False,3,2862,1714063656533,1714063250367,debugxIeI0:debugZKIEy,54,27,0,1,1
TEST,2824183,12,10,3,6,9,C100010000010,C000000000100,1,0,False,4,1337,1714063658678,1714063250367,debugxIeI0:debugZKIEy,27,18,0,1,1
TEST,2824183,12,10,3,6,9,C100010000010,C000000000001,1,0,False,5,1094,1714063660573,1714063250367,debugxIeI0:debugZKIEy,18,9,0,1,1
TEST,2824183,12,10,3,6,9,C100010000010,C000001000010,2,1,False,6,3058,1714063664439,1714063250367,debugxIeI0:debugZKIEy,9,6,0,0,0
TEST,2824183,12,10,3,6,9,C100010000010,C000010000010,2,2,False,7,1897,1714063667149,1714063250367,debugxIeI0:debugZKIEy,6,3,0,0,0
TEST,2824183,12,10,3,6,9,C100010000010,C001010000010,3,2,False,8,2679,1714063670629,1714063250367,debugxIeI0:debugZKIEy,3,2,0,0,0
TEST,2824183,12,10,3,6,9,C100010000010,C010010000010,3,2,False,9,2088,1714063673518,1714063250367,debugxIeI0:debugZKIEy,2,1,0,0,0
TEST,2824183,12,10,3,6,9,C100010000010,C100010000010,3,3,True,10,2022,1714063676344,1714063250367,debugxIeI0:debugZKIEy,1,1,0,0,0
TEST,2824183,12,10,3,6,10,C000100010100,C111111000000,6,1,False,1,4260,1714063684245,1714063250367,debugxIeI0:debugZKIEy,220,90,1,1,1
TEST,2824183,12,10,3,6,10,C000100010100,C000000111000,3,1,False,2,1825,1714063686871,1714063250367,debugxIeI0:debugZKIEy,90,54,0,1,1
TEST,2824183,12,10,3,6,10,C000100010100,C000111000000,3,1,False,3,2858,1714063690533,1714063250367,debugxIeI0:debugZKIEy,54,27,1,0,1
TEST,2824183,12,10,3,6,10,C000100010100,C000000000010,1,0,False,4,6864,1714063698207,1714063250367,debugxIeI0:debugZKIEy,27,18,0,1,1
TEST,2824183,12,10,3,6,10,C000100010100,C000000000001,1,0,False,5,949,1714063699965,1714063250367,debugxIeI0:debugZKIEy,18,9,0,1,1
TEST,2824183,12,10,3,6,10,C000100010100,C000000001100,2,1,False,6,1913,1714063702684,1714063250367,debugxIeI0:debugZKIEy,9,6,0,0,0
TEST,2824183,12,10,3,6,10,C000100010100,C000000100100,2,1,False,7,2175,1714063705664,1714063250367,debugxIeI0:debugZKIEy,6,3,0,0,0
TEST,2824183,12,10,3,6,10,C000100010100,C000001010100,3,2,False,8,2842,1714063709312,1714063250367,debugxIeI0:debugZKIEy,3,2,0,0,0
TEST,2824183,12,10,3,6,10,C000100010100,C000010010100,3,2,False,9,2120,1714063712233,1714063250367,debugxIeI0:debugZKIEy,2,1,0,0,0
TEST,2824183,12,10,3,6,10,C000100010100,C000100010100,3,3,True,10,2469,1714063715504,1714063250367,debugxIeI0:debugZKIEy,1,1,0,0,0
TEST,8358906,12,10,3,6,1,C011000010000,C101010101010,6,1,False,1,7233,1714063285388,1714063258146,debugn3Zq5:debug4Vfew,220,90,1,1,1
TEST,8358906,12,10,3,6,1,C011000010000,C010101010101,6,2,False,2,14255,1714063300448,1714063258146,debugn3Zq5:debug4Vfew,90,90,0,1,1
TEST,8358906,12,10,3,6,1,C011000010000,C010101010100,5,2,False,3,26478,1714063327737,1714063258146,debugn3Zq5:debug4Vfew,90,60,1,0,1
TEST,8358906,12,10,3,6,1,C011000010000,C010101010000,4,2,False,4,5359,1714063333901,1714063258146,debugn3Zq5:debug4Vfew,60,36,1,0,1
TEST,8358906,12,10,3,6,1,C011000010000,C010101000000,3,1,False,5,8923,1714063343633,1714063258146,debugn3Zq5:debug4Vfew,36,18,1,0,1
TEST,8358906,12,10,3,6,1,C011000010000,C010100000000,2,1,False,6,15867,1714063360310,1714063258146,debugn3Zq5:debug4Vfew,18,12,1,0,1
TEST,8358906,12,10,3,6,1,C011000010000,C010000000000,1,1,False,7,12506,1714063373617,1714063258146,debugn3Zq5:debug4Vfew,12,6,1,0,1
TEST,8358906,12,10,3,6,1,C011000010000,C010000010010,3,2,False,8,16102,1714063390524,1714063258146,debugn3Zq5:debug4Vfew,6,5,0,0,0
TEST,8358906,12,10,3,6,1,C011000010000,C010000111000,4,2,False,9,9146,1714063400474,1714063258146,debugn3Zq5:debug4Vfew,5,3,0,0,0
TEST,8358906,12,10,3,6,1,C011000010000,C010010010000,3,2,False,10,18670,1714063419944,1714063258146,debugn3Zq5:debug4Vfew,3,2,0,0,0
TEST,8358906,12,10,3,6,1,C011000010000,C011000010000,3,3,True,11,6070,1714063426815,1714063258146,debugn3Zq5:debug4Vfew,2,1,0,0,0
TEST,8358906,12,10,3,6,2,C010010001000,C111111000000,6,2,False,1,18192,1714063448585,1714063258146,debugn3Zq5:debug4Vfew,220,90,1,1,1
TEST,8358906,12,10,3,6,2,C010010001000,C000000111111,6,1,False,2,3034,1714063452430,1714063258146,debugn3Zq5:debug4Vfew,90,90,0,1,1
TEST,8358906,12,10,3,6,2,C010010001000,C111110000000,5,2,False,3,5050,1714063458295,1714063258146,debugn3Zq5:debug4Vfew,90,60,1,0,1
TEST,8358906,12,10,3,6,2,C010010001000,C111000000000,3,1,False,4,2579,1714063461675,1714063258146,debugn3Zq5:debug4Vfew,60,36,1,0,1
TEST,8358906,12,10,3,6,2,C010010001000,C110100000000,3,1,False,5,11247,1714063473726,1714063258146,debugn3Zq5:debug4Vfew,36,18,1,0,1
TEST,8358906,12,10,3,6,2,C010010001000,C010010000000,2,2,False,6,6368,1714063480895,1714063258146,debugn3Zq5:debug4Vfew,18,6,1,0,1
TEST,8358906,12,10,3,6,2,C010010001000,C000000011111,5,1,False,7,18755,1714063500451,1714063258146,debugn3Zq5:debug4Vfew,6,5,1,0,1
TEST,8358906,12,10,3,6,2,C010010001000,C000000001111,4,1,False,8,2965,1714063504216,1714063258146,debugn3Zq5:debug4Vfew,5,4,1,0,1
TEST,8358906,12,10,3,6,2,C010010001000,C000000000111,3,0,False,9,2864,1714063507886,1714063258146,debugn3Zq5:debug4Vfew,4,1,1,0,1
TEST,8358906,12,10,3,6,2,C010010001000,C010010001000,3,3,True,10,5566,1714063514261,1714063258146,debugn3Zq5:debug4Vfew,1,1,0,0,0
TEST,8358906,12,10,3,6,3,C010000000011,C111111000000,6,1,False,1,3922,1714063527703,1714063258146,debugn3Zq5:debug4Vfew,220,90,1,1,1
TEST,8358906,12,10,3,6,3,C010000000011,C000000111111,6,2,False,2,3238,1714063531751,1714063258146,debugn3Zq5:debug4Vfew,90,90,0,1,1
TEST,8358906,12,10,3,6,3,C010000000011,C000000010101,3,1,False,3,7605,1714063540169,1714063258146,debugn3Zq5:debug4Vfew,90,54,1,0,1
TEST,8358906,12,10,3,6,3,C010000000011,C000000001010,2,1,False,4,10827,1714063551798,1714063258146,debugn3Zq5:debug4Vfew,54,36,1,0,1
TEST,8358906,12,10,3,6,3,C010000000011,C000000000110,2,1,False,5,3251,1714063555857,1714063258146,debugn3Zq5:debug4Vfew,36,18,1,0,1
TEST,8358906,12,10,3,6,3,C010000000011,C000000000011,2,2,False,6,2261,1714063558922,1714063258146,debugn3Zq5:debug4Vfew,18,6,1,0,1
TEST,8358906,12,10,3,6,3,C010000000011,C010101000000,3,1,False,7,7156,1714063566887,1714063258146,debugn3Zq5:debug4Vfew,6,3,1,0,1
TEST,8358906,12,10,3,6,3,C010000000011,C010100000000,2,1,False,8,5725,1714063573423,1714063258146,debugn3Zq5:debug4Vfew,3,2,1,0,1
TEST,8358906,12,10,3,6,3,C010000000011,C010000000011,3,3,True,9,4141,1714063578369,1714063258146,debugn3Zq5:debug4Vfew,2,1,0,0,0
TEST,8358906,12,10,3,6,4,C001000010100,C111111000000,6,1,False,1,9477,1714063593819,1714063258146,debugn3Zq5:debug4Vfew,220,90,1,1,1
TEST,8358906,12,10,3,6,4,C001000010100,C000000111111,6,2,False,2,3018,1714063597650,1714063258146,debugn3Zq5:debug4Vfew,90,90,0,1,1
TEST,8358906,12,10,3,6,4,C001000010100,C000000101010,3,0,False,3,2760,1714063601224,1714063258146,debugn3Zq5:debug4Vfew,90,18,1,0,1
TEST,8358906,12,10,3,6,4,C001000010100,C000000010100,2,2,False,4,4689,1714063606721,1714063258146,debugn3Zq5:debug4Vfew,18,6,1,0,1
TEST,8358906,12,10,3,6,4,C001000010100,C010101000000,3,0,False,5,6006,1714063613530,1714063258146,debugn3Zq5:debug4Vfew,6,3,1,0,1
TEST,8358906,12,10,3,6,4,C001000010100,C001010000000,2,1,False,6,4415,1714063618747,1714063258146,debugn3Zq5:debug4Vfew,3,2,1,0,1
TEST,8358906,12,10,3,6,4,C001000010100,C000010010100,3,2,False,7,6913,1714063626462,1714063258146,debugn3Zq5:debug4Vfew,2,1,0,0,0
TEST,8358906,12,10,3,6,4,C001000010100,C001000010100,3,3,True,8,4181,1714063631447,1714063258146,debugn3Zq5:debug4Vfew,1,1,0,0,0
TEST,8358906,12,10,3,6,5,C100000010100,C111111000000,6,1,False,1,3345,1714063639976,1714063258146,debugn3Zq5:debug4Vfew,220,90,1,1,1
TEST,8358906,12,10,3,6,5,C100000010100,C000000111111,6,2,False,2,2575,1714063643358,1714063258146,debugn3Zq5:debug4Vfew,90,90,0,1,1
TEST,8358906,12,10,3,6,5,C100000010100,C000000101010,3,0,False,3,2067,1714063646233,1714063258146,debugn3Zq5:debug4Vfew,90,18,1,0,1
TEST,8358906,12,10,3,6,5,C100000010100,C000000010100,2,2,False,4,5567,1714063652600,1714063258146,debugn3Zq5:debug4Vfew,18,6,1,0,1
TEST,8358906,12,10,3,6,5,C100000010100,C010101000000,3,0,False,5,19748,1714063673152,1714063258146,debugn3Zq5:debug4Vfew,6,3,1,0,1
TEST,8358906,12,10,3,6,5,C100000010100,C001010000000,2,0,False,6,3891,1714063677849,1714063258146,debugn3Zq5:debug4Vfew,3,1,1,0,1
TEST,8358906,12,10,3,6,5,C100000010100,C100000010100,3,3,True,7,3725,1714063682375,1714063258146,debugn3Zq5:debug4Vfew,1,1,0,0,0
TEST,8358906,12,10,3,6,6,C001100000010,C111111000000,6,2,False,1,3585,1714063689503,1714063258146,debugn3Zq5:debug4Vfew,220,90,1,1,1
TEST,8358906,12,10,3,6,6,C001100000010,C000000111111,6,1,False,2,2972,1714063693276,1714063258146,debugn3Zq5:debug4Vfew,90,90,0,1,1
TEST,8358906,12,10,3,6,6,C001100000010,C010101000000,3,1,False,3,3910,1714063697988,1714063258146,debugn3Zq5:debug4Vfew,90,54,1,0,1
TEST,8358906,12,10,3,6,6,C001100000010,C101101000000,4,2,False,4,18194,1714063716995,1714063258146,debugn3Zq5:debug4Vfew,54,24,1,0,1
TEST,8358906,12,10,3,6,6,C001100000010,C001100000000,2,2,False,5,3781,1714063721579,1714063258146,debugn3Zq5:debug4Vfew,24,6,1,0,1
TEST,8358906,12,10,3,6,6,C001100000010,C000000111111,6,1,False,6,3843,1714063726228,1714063258146,debugn3Zq5:debug4Vfew,6,6,1,0,1
TEST,8358906,12,10,3,6,6,C001100000010,C000000010101,3,0,False,7,2476,1714063729511,1714063258146,debugn3Zq5:debug4Vfew,6,3,1,0,1
TEST,8358906,12,10,3,6,6,C001100000010,C000000001010,2,1,False,8,2062,1714063732377,1714063258146,debugn3Zq5:debug4Vfew,3,2,1,0,1
TEST,8358906,12,10,3,6,6,C001100000010,C001100000010,3,3,True,9,2765,1714063735950,1714063258146,debugn3Zq5:debug4Vfew,2,1,0,0,0
TEST,8358906,12,10,3,6,7,C000000010011,C101010101010,6,1,False,1,5810,1714063745232,1714063258146,debugn3Zq5:debug4Vfew,220,90,1,1,1
TEST,8358906,12,10,3,6,7,C000000010011,C010101010101,6,2,False,2,4724,1714063750760,1714063258146,debugn3Zq5:debug4Vfew,90,90,0,1,1
TEST,8358906,12,10,3,6,7,C000000010011,C101010101000,5,0,False,3,19910,1714063771479,1714063258146,debugn3Zq5:debug4Vfew,90,15,1,0,1
TEST,8358906,12,10,3,6,7,C000000010011,C010101010000,4,1,False,4,17341,1714063789627,1714063258146,debugn3Zq5:debug4Vfew,15,8,1,0,1
TEST,8358906,12,10,3,6,7,C000000010011,C010101000000,3,0,False,5,12102,1714063802539,1714063258146,debugn3Zq5:debug4Vfew,8,2,1,0,1
TEST,8358906,12,10,3,6,7,C000000010011,C000000010110,3,2,False,6,8622,1714063811967,1714063258146,debugn3Zq5:debug4Vfew,2,1,0,0,0
TEST,8358906,12,10,3,6,7,C000000010011,C000000010011,3,3,True,7,2064,1714063814834,1714063258146,debugn3Zq5:debug4Vfew,1,1,0,0,0
TEST,8358906,12,10,3,6,8,C000011000001,C111111000000,6,2,False,1,3347,1714063822384,1714063258146,debugn3Zq5:debug4Vfew,220,90,1,1,1
TEST,8358906,12,10,3,6,8,C000011000001,C000000101010,3,0,False,2,10329,1714063833514,1714063258146,debugn3Zq5:debug4Vfew,90,45,0,1,1
TEST,8358906,12,10,3,6,8,C000011000001,C000000010100,2,0,False,3,8954,1714063843274,1714063258146,debugn3Zq5:debug4Vfew,45,15,0,1,1
TEST,8358906,12,10,3,6,8,C000011000001,C010101000000,3,1,False,4,10203,1714063854280,1714063258146,debugn3Zq5:debug4Vfew,15,9,1,0,1
TEST,8358906,12,10,3,6,8,C000011000001,C101011000000,4,2,False,5,9481,1714063864564,1714063258146,debugn3Zq5:debug4Vfew,9,3,1,0,1
TEST,8358906,12,10,3,6,8,C000011000001,C000011000001,3,3,True,6,5974,1714063871341,1714063258146,debugn3Zq5:debug4Vfew,3,1,0,0,0
TEST,8358906,12,10,3,6,9,C000110000100,C101010000000,3,1,False,1,5263,1714063880335,1714063258146,debugn3Zq5:debug4Vfew,220,108,1,1,1
TEST,8358906,12,10,3,6,9,C000110000100,C101000000000,2,0,False,2,2670,1714063883809,1714063258146,debugn3Zq5:debug4Vfew,108,36,1,0,1
TEST,8358906,12,10,3,6,9,C000110000100,C000000101010,3,0,False,3,5927,1714063890539,1714063258146,debugn3Zq5:debug4Vfew,36,15,0,1,1
TEST,8358906,12,10,3,6,9,C000110000100,C000000010100,2,1,False,4,3697,1714063895049,1714063258146,debugn3Zq5:debug4Vfew,15,8,0,1,1
TEST,8358906,12,10,3,6,9,C000110000100,C000000000101,2,1,False,5,2206,1714063898062,1714063258146,debugn3Zq5:debug4Vfew,8,4,0,0,0
TEST,8358906,12,10,3,6,9,C000110000100,C000000000001,1,0,False,6,2419,1714063901287,1714063258146,debugn3Zq5:debug4Vfew,4,3,1,0,1
TEST,8358906,12,10,3,6,9,C000110000100,C000011000100,3,2,False,7,35251,1714063937340,1714063258146,debugn3Zq5:debug4Vfew,3,2,0,0,0
TEST,8358906,12,10,3,6,9,C000110000100,C010010000100,3,2,False,8,26328,1714063964481,1714063258146,debugn3Zq5:debug4Vfew,2,1,0,0,0
TEST,8358906,12,10,3,6,9,C000110000100,C000110000100,3,3,True,9,3848,1714063969134,1714063258146,debugn3Zq5:debug4Vfew,1,1,0,0,0
TEST,8358906,12,10,3,6,10,C001010001000,C101010000000,3,2,False,1,4613,1714063977274,1714063258146,debugn3Zq5:debug4Vfew,220,27,1,1,1
TEST,8358906,12,10,3,6,10,C001010001000,C001010000000,2,2,False,2,4144,1714063982218,1714063258146,debugn3Zq5:debug4Vfew,27,9,1,0,1
TEST,8358906,12,10,3,6,10,C001010001000,C000001010101,4,0,False,3,9518,1714063992541,1714063258146,debugn3Zq5:debug4Vfew,9,5,0,1,1
TEST,8358906,12,10,3,6,10,C001010001000,C000000101010,3,1,False,4,2226,1714063995567,1714063258146,debugn3Zq5:debug4Vfew,5,3,0,1,1
TEST,8358906,12,10,3,6,10,C001010001000,C000000001010,2,1,False,5,3104,1714063999475,1714063258146,debugn3Zq5:debug4Vfew,3,2,1,0,1
TEST,8358906,12,10,3,6,10,C001010001000,C001010000010,3,2,False,6,3587,1714064003866,1714063258146,debugn3Zq5:debug4Vfew,2,1,0,0,0
TEST,8358906,12,10,3,6,10,C001010001000,C001010001000,3,3,True,7,2788,1714064007461,1714063258146,debugn3Zq5:debug4Vfew,1,1,0,0,0
TEST,9383170,12,10,3,6,1,C001010001000,C100100100000,3,0,False,1,19196,1714063346306,1714063285161,debugaF07p:debugvEG1c,220,84,1,1,1
TEST,9383170,12,10,3,6,1,C001010001000,C010010010000,3,1,False,2,4782,1714063351896,1714063285161,debugaF07p:debugvEG1c,84,45,0,1,1
TEST,9383170,12,10,3,6,1,C001010001000,C000010010010,3,1,False,3,3864,1714063356561,1714063285161,debugaF07p:debugvEG1c,45,25,0,0,0
TEST,9383170,12,10,3,6,1,C001010001000,C010000010010,3,0,False,4,5912,1714063363277,1714063285161,debugaF07p:debugvEG1c,25,10,0,0,0
TEST,9383170,12,10,3,6,1,C001010001000,C000011001000,3,2,False,5,11156,1714063375239,1714063285161,debugaF07p:debugvEG1c,10,6,0,0,0
TEST,9383170,12,10,3,6,1,C001010001000,C000011000100,3,1,False,6,4176,1714063380221,1714063285161,debugaF07p:debugvEG1c,6,2,0,0,0
TEST,9383170,12,10,3,6,1,C001010001000,C000010000101,3,1,False,7,3858,1714063384887,1714063285161,debugaF07p:debugvEG1c,2,1,0,0,0
TEST,9383170,12,10,3,6,1,C001010001000,C001010001000,3,3,True,8,27334,1714063413028,1714063285161,debugaF07p:debugvEG1c,1,1,0,0,0
TEST,9383170,12,10,3,6,2,C000000001101,C111111000000,6,0,False,1,7106,1714063425112,1714063285161,debugaF07p:debugvEG1c,220,20,1,1,1
TEST,9383170,12,10,3,6,2,C000000001101,C000000111111,6,3,False,2,5540,1714063431461,1714063285161,debugaF07p:debugvEG1c,20,20,0,1,1
TEST,9383170,12,10,3,6,2,C000000001101,C000000101010,3,1,False,3,5312,1714063437584,1714063285161,debugaF07p:debugvEG1c,20,9,1,0,1
TEST,9383170,12,10,3,6,2,C000000001101,C000000011010,3,1,False,4,4424,1714063442813,1714063285161,debugaF07p:debugvEG1c,9,4,1,0,1
TEST,9383170,12,10,3,6,2,C000000001101,C000000011100,3,2,False,5,8753,1714063452372,1714063285161,debugaF07p:debugvEG1c,4,2,1,0,1
TEST,9383170,12,10,3,6,2,C000000001101,C000000010101,3,2,False,6,11903,1714063465090,1714063285161,debugaF07p:debugvEG1c,2,2,1,0,1
TEST,9383170,12,10,3,6,2,C000000001101,C000000110100,3,1,False,7,10769,1714063476664,1714063285161,debugaF07p:debugvEG1c,2,1,1,0,1
TEST,9383170,12,10,3,6,2,C000000001101,C000000001101,3,3,True,8,35639,1714063513108,1714063285161,debugaF07p:debugvEG1c,1,1,1,0,1
TEST,9383170,12,10,3,6,3,C000010000110,C111000000000,3,0,False,1,9018,1714063526159,1714063285161,debugaF07p:debugvEG1c,220,84,1,1,1
TEST,9383170,12,10,3,6,3,C000010000110,C000111000000,3,1,False,2,2218,1714063529187,1714063285161,debugaF07p:debugvEG1c,84,45,0,1,1
TEST,9383170,12,10,3,6,3,C000010000110,C000011100000,3,1,False,3,2442,1714063532436,1714063285161,debugaF07p:debugvEG1c,45,25,0,0,0
TEST,9383170,12,10,3,6,3,C000010000110,C000001110000,3,0,False,4,2645,1714063535885,1714063285161,debugaF07p:debugvEG1c,25,6,0,0,0
TEST,9383170,12,10,3,6,3,C000010000110,C000010001100,3,2,False,5,4418,1714063541111,1714063285161,debugaF07p:debugvEG1c,6,4,0,0,0
TEST,9383170,12,10,3,6,3,C000010000110,C000010000110,3,3,True,6,2964,1714063544879,1714063285161,debugaF07p:debugvEG1c,4,1,0,0,0
TEST,9383170,12,10,3,6,4,C011000010000,C111000000000,3,2,False,1,2614,1714063551357,1714063285161,debugaF07p:debugvEG1c,220,27,1,1,1
TEST,9383170,12,10,3,6,4,C011000010000,C011100000000,3,2,False,2,2291,1714063554450,1714063285161,debugaF07p:debugvEG1c,27,10,0,0,0
TEST,9383170,12,10,3,6,4,C011000010000,C001110000000,3,1,False,3,2783,1714063558042,1714063285161,debugaF07p:debugvEG1c,10,8,0,0,0
TEST,9383170,12,10,3,6,4,C011000010000,C001101000000,3,1,False,4,2569,1714063561427,1714063285161,debugaF07p:debugvEG1c,8,7,0,0,0
TEST,9383170,12,10,3,6,4,C011000010000,C011000100000,3,2,False,5,9351,1714063571592,1714063285161,debugaF07p:debugvEG1c,7,5,0,0,0
TEST,9383170,12,10,3,6,4,C011000010000,C011000010000,3,3,True,6,2296,1714063574695,1714063285161,debugaF07p:debugvEG1c,5,1,0,0,0
TEST,9383170,12,10,3,6,5,C001100001000,C111000000000,3,1,False,1,2385,1714063580870,1714063285161,debugaF07p:debugvEG1c,220,108,1,1,1
TEST,9383170,12,10,3,6,5,C001100001000,C011100000000,3,2,False,2,2426,1714063584098,1714063285161,debugaF07p:debugvEG1c,108,16,0,0,0
TEST,9383170,12,10,3,6,5,C001100001000,C001110000000,3,2,False,3,2540,1714063587445,1714063285161,debugaF07p:debugvEG1c,16,8,0,0,0
TEST,9383170,12,10,3,6,5,C001100001000,C001101000000,3,2,False,4,2818,1714063591072,1714063285161,debugaF07p:debugvEG1c,8,6,0,0,0
TEST,9383170,12,10,3,6,5,C001100001000,C001100100000,3,2,False,5,2288,1714063594165,1714063285161,debugaF07p:debugvEG1c,6,5,0,0,0
TEST,9383170,12,10,3,6,5,C001100001000,C001100010000,3,2,False,6,2254,1714063597223,1714063285161,debugaF07p:debugvEG1c,5,4,0,0,0
TEST,9383170,12,10,3,6,5,C001100001000,C001100001000,3,3,True,7,2588,1714063600622,1714063285161,debugaF07p:debugvEG1c,4,1,0,0,0
TEST,9383170,12,10,3,6,6,C000001001100,C111000000000,3,0,False,1,3142,1714063607416,1714063285161,debugaF07p:debugvEG1c,220,84,1,1,1
TEST,9383170,12,10,3,6,6,C000001001100,C000111000000,3,1,False,2,2048,1714063610266,1714063285161,debugaF07p:debugvEG1c,84,45,0,1,1
TEST,9383170,12,10,3,6,6,C000001001100,C000011100000,3,1,False,3,4245,1714063615323,1714063285161,debugaF07p:debugvEG1c,45,25,0,0,0
TEST,9383170,12,10,3,6,6,C000001001100,C000001110000,3,1,False,4,2289,1714063618416,1714063285161,debugaF07p:debugvEG1c,25,14,0,0,0
TEST,9383170,12,10,3,6,6,C000001001100,C000001001100,3,3,True,5,3916,1714063623140,1714063285161,debugaF07p:debugvEG1c,14,1,0,0,0
TEST,9383170,12,10,3,6,7,C010000001100,C111000000000,3,1,False,1,4640,1714063631860,1714063285161,debugaF07p:debugvEG1c,220,108,1,1,1
TEST,9383170,12,10,3,6,7,C010000001100,C011100000000,3,1,False,2,2908,1714063635571,1714063285161,debugaF07p:debugvEG1c,108,64,0,0,0
TEST,9383170,12,10,3,6,7,C010000001100,C001110000000,3,0,False,3,2056,1714063638436,1714063285161,debugaF07p:debugvEG1c,64,21,0,0,0
TEST,9383170,12,10,3,6,7,C010000001100,C010001100000,3,1,False,4,3460,1714063642702,1714063285161,debugaF07p:debugvEG1c,21,10,0,0,0
TEST,9383170,12,10,3,6,7,C010000001100,C010000011000,3,2,False,5,3188,1714063646700,1714063285161,debugaF07p:debugvEG1c,10,6,0,0,0
TEST,9383170,12,10,3,6,7,C010000001100,C010000010100,3,2,False,6,2752,1714063650259,1714063285161,debugaF07p:debugvEG1c,6,3,0,0,0
TEST,9383170,12,10,3,6,7,C010000001100,C010000010010,3,1,False,7,4075,1714063655136,1714063285161,debugaF07p:debugvEG1c,3,1,0,0,0
TEST,9383170,12,10,3,6,7,C010000001100,C010000001100,3,3,True,8,5392,1714063661336,1714063285161,debugaF07p:debugvEG1c,1,1,0,0,0
TEST,9383170,12,10,3,6,8,C001000001010,C111000000000,3,1,False,1,2780,1714063669644,1714063285161,debugaF07p:debugvEG1c,220,108,1,1,1
TEST,9383170,12,10,3,6,8,C001000001010,C011100000000,3,1,False,2,2280,1714063672734,1714063285161,debugaF07p:debugvEG1c,108,64,0,0,0
TEST,9383170,12,10,3,6,8,C001000001010,C001110000000,3,1,False,3,2409,1714063675946,1714063285161,debugaF07p:debugvEG1c,64,35,0,0,0
TEST,9383170,12,10,3,6,8,C001000001010,C001001100000,3,1,False,4,4372,1714063681124,1714063285161,debugaF07p:debugvEG1c,35,14,0,0,0
TEST,9383170,12,10,3,6,8,C001000001010,C001000011000,3,2,False,5,2858,1714063684791,1714063285161,debugaF07p:debugvEG1c,14,6,0,0,0
TEST,9383170,12,10,3,6,8,C001000001010,C001000010100,3,1,False,6,3169,1714063688763,1714063285161,debugaF07p:debugvEG1c,6,2,0,0,0
TEST,9383170,12,10,3,6,8,C001000001010,C001000001010,3,3,True,7,3664,1714063693229,1714063285161,debugaF07p:debugvEG1c,2,1,0,0,0
TEST,9383170,12,10,3,6,9,C100000001100,C111000000000,3,1,False,1,3011,1714063699802,1714063285161,debugaF07p:debugvEG1c,220,108,1,1,1
TEST,9383170,12,10,3,6,9,C100000001100,C011100000000,3,0,False,2,1897,1714063702503,1714063285161,debugaF07p:debugvEG1c,108,28,0,0,0
TEST,9383170,12,10,3,6,9,C100000001100,C100011000000,3,1,False,3,2429,1714063705743,1714063285161,debugaF07p:debugvEG1c,28,15,0,0,0
TEST,9383170,12,10,3,6,9,C100000001100,C100000110000,3,1,False,4,2888,1714063709443,1714063285161,debugaF07p:debugvEG1c,15,6,0,0,0
TEST,9383170,12,10,3,6,9,C100000001100,C100000001100,3,3,True,5,2339,1714063712590,1714063285161,debugaF07p:debugvEG1c,6,1,0,0,0
TEST,9383170,12,10,3,6,10,C001000010010,C111000000000,3,1,False,1,2862,1714063720400,1714063285161,debugaF07p:debugvEG1c,220,108,1,1,1
TEST,9383170,12,10,3,6,10,C001000010010,C011100000000,3,1,False,2,1936,1714063723140,1714063285161,debugaF07p:debugvEG1c,108,64,0,0,0
TEST,9383170,12,10,3,6,10,C001000010010,C001110000000,3,1,False,3,3427,1714063727376,1714063285161,debugaF07p:debugvEG1c,64,35,0,0,0
TEST,9383170,12,10,3,6,10,C001000010010,C001001100000,3,1,False,4,2311,1714063730497,1714063285161,debugaF07p:debugvEG1c,35,14,0,0,0
TEST,9383170,12,10,3,6,10,C001000010010,C001000011000,3,2,False,5,2482,1714063733788,1714063285161,debugaF07p:debugvEG1c,14,6,0,0,0
TEST,9383170,12,10,3,6,10,C001000010010,C001000010100,3,2,False,6,6684,1714063741278,1714063285161,debugaF07p:debugvEG1c,6,3,0,0,0
TEST,9383170,12,10,3,6,10,C001000010010,C001000010010,3,3,True,7,3355,1714063745445,1714063285161,debugaF07p:debugvEG1c,3,1,0,0,0
TEST,4323775,12,10,3,6,1,C000011000010,C100100110101,6,0,False,1,11523,1714063332985,1714063292846,debugXjGk0:debugmXZVk,220,20,1,1,1
TEST,4323775,12,10,3,6,1,C000011000010,C000011000010,3,3,True,2,13233,1714063347021,1714063292846,debugXjGk0:debugmXZVk,20,1,0,1,1
TEST,4323775,12,10,3,6,2,C000000110100,C100100001111,6,1,False,1,9660,1714063750824,1714063292846,debugXjGk0:debugmXZVk,220,90,1,1,1
TEST,4323775,12,10,3,6,2,C000000110100,C011010000000,3,0,False,2,4835,1714063756461,1714063292846,debugXjGk0:debugmXZVk,90,18,0,1,1
TEST,4323775,12,10,3,6,2,C000000110100,C100001110000,4,2,False,3,10794,1714063768057,1714063292846,debugXjGk0:debugmXZVk,18,15,0,0,0
TEST,4323775,12,10,3,6,2,C000000110100,C100000001000,2,0,False,4,30546,1714063799404,1714063292846,debugXjGk0:debugmXZVk,15,12,1,0,1
TEST,4323775,12,10,3,6,2,C000000110100,C000001110000,3,2,False,5,3695,1714063803901,1714063292846,debugXjGk0:debugmXZVk,12,12,1,0,1
TEST,4323775,12,10,3,6,2,C000000110100,C000101010000,3,1,False,6,9420,1714063814123,1714063292846,debugXjGk0:debugmXZVk,12,6,0,0,0
TEST,4323775,12,10,3,6,2,C000000110100,C000001100110,4,2,False,7,9255,1714063824180,1714063292846,debugXjGk0:debugmXZVk,6,3,0,0,0
TEST,4323775,12,10,3,6,2,C000000110100,C000001100000,2,1,False,8,3007,1714063827988,1714063292846,debugXjGk0:debugmXZVk,3,2,1,0,1
TEST,4323775,12,10,3,6,2,C000000110100,C000001010010,3,1,False,9,8348,1714063837139,1714063292846,debugXjGk0:debugmXZVk,2,1,0,0,0
TEST,4323775,12,10,3,6,2,C000000110100,C000100100010,3,1,False,10,7929,1714063845870,1714063292846,debugXjGk0:debugmXZVk,1,1,0,0,0
TEST,4323775,12,10,3,6,2,C000000110100,C000101111001,6,2,False,11,7881,1714063854553,1714063292846,debugXjGk0:debugmXZVk,1,1,0,0,0
TEST,4323775,12,10,3,6,2,C000000110100,C000001010100,3,2,False,12,27610,1714063882966,1714063292846,debugXjGk0:debugmXZVk,1,1,0,0,0
TEST,4323775,12,10,3,6,2,C000000110100,C000001010010,3,1,False,13,2873,1714063886642,1714063292846,debugXjGk0:debugmXZVk,1,1,1,0,1
TEST,4323775,12,10,3,6,2,C000000110100,C000001100100,3,2,False,14,10079,1714063897522,1714063292846,debugXjGk0:debugmXZVk,1,1,1,0,1
TEST,4323775,12,10,3,6,2,C000000110100,C000000110100,3,3,True,15,28171,1714063926496,1714063292846,debugXjGk0:debugmXZVk,1,1,0,0,0
TEST,4323775,12,10,3,6,3,C000101000001,C001011111000,6,1,False,1,7807,1714063938136,1714063292846,debugXjGk0:debugmXZVk,220,90,1,1,1
TEST,4323775,12,10,3,6,3,C000101000001,C110100000000,3,1,False,2,9462,1714063948400,1714063292846,debugXjGk0:debugmXZVk,90,54,0,1,1
TEST,4323775,12,10,3,6,3,C000101000001,C111100000000,4,1,False,3,7250,1714063956452,1714063292846,debugXjGk0:debugmXZVk,54,45,0,0,0
TEST,4323775,12,10,3,6,3,C000101000001,C010100100000,3,1,False,4,12125,1714063969379,1714063292846,debugXjGk0:debugmXZVk,45,27,0,0,0
TEST,4323775,12,10,3,6,3,C000101000001,C010100000000,2,1,False,5,6085,1714063976266,1714063292846,debugXjGk0:debugmXZVk,27,24,1,0,1
TEST,4323775,12,10,3,6,3,C000101000001,C010011000000,3,1,False,6,11580,1714063988648,1714063292846,debugXjGk0:debugmXZVk,24,12,0,0,0
TEST,4323775,12,10,3,6,3,C000101000001,C000011001000,3,1,False,7,5239,1714063994690,1714063292846,debugXjGk0:debugmXZVk,12,9,1,0,1
TEST,4323775,12,10,3,6,3,C000101000001,C000001000000,1,1,False,8,1203,1714063996695,1714063292846,debugXjGk0:debugmXZVk,9,3,1,0,1
TEST,4323775,12,10,3,6,3,C000101000001,C010001000111,5,2,False,9,6745,1714064004241,1714063292846,debugXjGk0:debugmXZVk,3,3,0,0,0
TEST,4323775,12,10,3,6,3,C000101000001,C010001000000,2,1,False,10,7842,1714064012884,1714063292846,debugXjGk0:debugmXZVk,3,3,1,0,1
TEST,4323775,12,10,3,6,3,C000101000001,C000101000100,3,2,False,11,11149,1714064024835,1714063292846,debugXjGk0:debugmXZVk,3,2,0,0,0
TEST,4323775,12,10,3,6,3,C000101000001,C000101000000,2,2,False,12,1267,1714064026904,1714063292846,debugXjGk0:debugmXZVk,2,2,1,0,1
TEST,4323775,12,10,3,6,3,C000101000001,C000101000001,3,3,True,13,2480,1714064030187,1714063292846,debugXjGk0:debugmXZVk,2,1,0,0,0
TEST,4323775,12,10,3,6,4,C000000011010,C100001110001,5,1,False,1,7341,1714064050313,1714063292846,debugXjGk0:debugmXZVk,220,105,1,1,1
TEST,4323775,12,10,3,6,4,C000000011010,C100000000001,2,0,False,2,2341,1714064053456,1714063292846,debugXjGk0:debugmXZVk,105,63,1,0,1
TEST,4323775,12,10,3,6,4,C000000011010,C001100000000,2,0,False,3,6854,1714064061111,1714063292846,debugXjGk0:debugmXZVk,63,30,0,1,1
TEST,4323775,12,10,3,6,4,C000000011010,C010001010000,3,1,False,4,3669,1714064065582,1714063292846,debugXjGk0:debugmXZVk,30,16,0,0,0
TEST,4323775,12,10,3,6,4,C000000011010,C010001000000,2,0,False,5,3729,1714064070113,1714063292846,debugXjGk0:debugmXZVk,16,6,1,0,1
TEST,4323775,12,10,3,6,4,C000000011010,C000010010100,3,1,False,6,5338,1714064076253,1714063292846,debugXjGk0:debugmXZVk,6,1,0,0,0
TEST,4323775,12,10,3,6,4,C000000011010,C000000010010,2,2,False,7,10702,1714064087757,1714063292846,debugXjGk0:debugmXZVk,1,1,0,0,0
TEST,4323775,12,10,3,6,4,C000000011010,C000000011010,3,3,True,8,3809,1714064092367,1714063292846,debugXjGk0:debugmXZVk,1,1,0,0,0
TEST,4323775,12,10,3,6,5,C100000100001,C000111111000,6,1,False,1,4123,1714064104655,1714063292846,debugXjGk0:debugmXZVk,220,90,1,1,1
TEST,4323775,12,10,3,6,5,C100000100001,C010000000010,2,0,False,2,4833,1714064110290,1714063292846,debugXjGk0:debugmXZVk,90,36,0,1,1
TEST,4323775,12,10,3,6,5,C100000100001,C100000000001,2,2,False,3,3061,1714064114154,1714063292846,debugXjGk0:debugmXZVk,36,6,0,1,1
TEST,4323775,12,10,3,6,5,C100000100001,C100010000001,3,2,False,4,4308,1714064119264,1714063292846,debugXjGk0:debugmXZVk,6,5,0,0,0
TEST,4323775,12,10,3,6,5,C100000100001,C100100000001,3,2,False,5,3170,1714064123236,1714063292846,debugXjGk0:debugmXZVk,5,4,0,0,0
TEST,4323775,12,10,3,6,5,C100000100001,C100000010001,3,2,False,6,3819,1714064127857,1714063292846,debugXjGk0:debugmXZVk,4,3,0,0,0
TEST,4323775,12,10,3,6,5,C100000100001,C100000001001,3,2,False,7,3360,1714064132020,1714063292846,debugXjGk0:debugmXZVk,3,2,0,0,0
TEST,4323775,12,10,3,6,5,C100000100001,C100000100001,3,3,True,8,4949,1714064137771,1714063292846,debugXjGk0:debugmXZVk,2,1,0,0,0
TEST,4323775,12,10,3,6,6,C101100000000,C000111111000,6,1,False,1,4315,1714064147414,1714063292846,debugXjGk0:debugmXZVk,220,90,1,1,1
TEST,4323775,12,10,3,6,6,C101100000000,C100000000001,2,1,False,2,4119,1714064152335,1714063292846,debugXjGk0:debugmXZVk,90,48,0,1,1
TEST,4323775,12,10,3,6,6,C101100000000,C101000000000,2,2,False,3,2729,1714064155866,1714063292846,debugXjGk0:debugmXZVk,48,6,0,0,0
TEST,4323775,12,10,3,6,6,C101100000000,C101001000000,3,2,False,4,12818,1714064169486,1714063292846,debugXjGk0:debugmXZVk,6,5,0,0,0
TEST,4323775,12,10,3,6,6,C101100000000,C101110100000,5,3,False,5,4031,1714064174318,1714063292846,debugXjGk0:debugmXZVk,5,3,0,0,0
TEST,4323775,12,10,3,6,6,C101100000000,C101100000000,3,3,True,6,2467,1714064177587,1714063292846,debugXjGk0:debugmXZVk,3,1,1,0,1
TEST,4323775,12,10,3,6,7,C010000010100,C000111111000,6,1,False,1,3337,1714064184779,1714063292846,debugXjGk0:debugmXZVk,220,90,1,1,1
TEST,4323775,12,10,3,6,7,C010000010100,C100000000001,2,0,False,2,2309,1714064187892,1714063292846,debugXjGk0:debugmXZVk,90,36,0,1,1
TEST,4323775,12,10,3,6,7,C010000010100,C001000000100,2,1,False,3,3252,1714064191945,1714063292846,debugXjGk0:debugmXZVk,36,24,0,1,1
TEST,4323775,12,10,3,6,7,C010000010100,C000010100100,3,1,False,4,3922,1714064196669,1714063292846,debugXjGk0:debugmXZVk,24,12,0,0,0
TEST,4323775,12,10,3,6,7,C010000010100,C000000100010,2,0,False,5,5965,1714064203436,1714063292846,debugXjGk0:debugmXZVk,12,5,0,0,0
TEST,4323775,12,10,3,6,7,C010000010100,C010010000000,2,1,False,6,4675,1714064208913,1714063292846,debugXjGk0:debugmXZVk,5,4,0,0,0
TEST,4323775,12,10,3,6,7,C010000010100,C010000010100,3,3,True,7,3894,1714064213609,1714063292846,debugXjGk0:debugmXZVk,4,1,0,0,0
TEST,4323775,12,10,3,6,8,C000100001001,C000111111000,6,2,False,1,2696,1714064227964,1714063292846,debugXjGk0:debugmXZVk,220,90,1,1,1
TEST,4323775,12,10,3,6,8,C000100001001,C010000000010,2,0,False,2,4344,1714064233109,1714063292846,debugXjGk0:debugmXZVk,90,60,0,1,1
TEST,4323775,12,10,3,6,8,C000100001001,C000000000100,1,0,False,3,3630,1714064237539,1714063292846,debugXjGk0:debugmXZVk,60,45,0,1,1
TEST,4323775,12,10,3,6,8,C000100001001,C001001100000,3,0,False,4,2374,1714064240713,1714063292846,debugXjGk0:debugmXZVk,45,12,0,0,0
TEST,4323775,12,10,3,6,8,C000100001001,C100110000000,3,1,False,5,3457,1714064244974,1714063292846,debugXjGk0:debugmXZVk,12,5,0,0,0
TEST,4323775,12,10,3,6,8,C000100001001,C100010001000,3,1,False,6,2881,1714064248656,1714063292846,debugXjGk0:debugmXZVk,5,2,0,0,0
TEST,4323775,12,10,3,6,8,C000100001001,C100000000000,1,0,False,7,1422,1714064250881,1714063292846,debugXjGk0:debugmXZVk,2,2,1,0,1
TEST,4323775,12,10,3,6,8,C000100001001,C000000011000,2,1,False,8,10836,1714064262518,1714063292846,debugXjGk0:debugmXZVk,2,2,1,0,1
TEST,4323775,12,10,3,6,8,C000100001001,C000110001001,4,3,False,9,4798,1714064268119,1714063292846,debugXjGk0:debugmXZVk,2,1,0,0,0
TEST,4323775,12,10,3,6,8,C000100001001,C000010001001,3,2,False,10,6324,1714064275244,1714063292846,debugXjGk0:debugmXZVk,1,1,1,0,1
TEST,4323775,12,10,3,6,8,C000100001001,C000100001001,3,3,True,11,2417,1714064278463,1714063292846,debugXjGk0:debugmXZVk,1,1,1,0,1
TEST,4323775,12,10,3,6,9,C000101000001,C000111111000,6,2,False,1,4356,1714064292703,1714063292846,debugXjGk0:debugmXZVk,220,90,1,1,1
TEST,4323775,12,10,3,6,9,C000101000001,C111000000000,3,0,False,2,5249,1714064298756,1714063292846,debugXjGk0:debugmXZVk,90,45,0,1,1
TEST,4323775,12,10,3,6,9,C000101000001,C000110000100,3,1,False,3,5038,1714064304595,1714063292846,debugXjGk0:debugmXZVk,45,22,0,0,0
TEST,4323775,12,10,3,6,9,C000101000001,C000110000000,2,1,False,4,2798,1714064308195,1714063292846,debugXjGk0:debugmXZVk,22,16,1,0,1
TEST,4323775,12,10,3,6,9,C000101000001,C000101000010,3,2,False,5,4834,1714064313832,1714063292846,debugXjGk0:debugmXZVk,16,5,0,0,0
TEST,4323775,12,10,3,6,9,C000101000001,C000101000000,2,2,False,6,1941,1714064316575,1714063292846,debugXjGk0:debugmXZVk,5,1,1,0,1
TEST,4323775,12,10,3,6,9,C000101000001,C000101000001,3,3,True,7,2610,1714064319987,1714063292846,debugXjGk0:debugmXZVk,1,1,0,0,0
TEST,4323775,12,10,3,6,10,C100000001100,C000111111000,6,1,False,1,2822,1714064352472,1714063292846,debugXjGk0:debugmXZVk,220,90,1,1,1
TEST,4323775,12,10,3,6,10,C100000001100,C111000000000,3,1,False,2,2550,1714064355824,1714063292846,debugXjGk0:debugmXZVk,90,54,0,1,1
TEST,4323775,12,10,3,6,10,C100000001100,C000000000111,3,1,False,3,2167,1714064358792,1714063292846,debugXjGk0:debugmXZVk,54,54,0,1,1
TEST,4323775,12,10,3,6,10,C100000001100,C100001000100,3,2,False,4,6428,1714064366023,1714063292846,debugXjGk0:debugmXZVk,54,9,0,0,0
TEST,4323775,12,10,3,6,10,C100000001100,C000001000100,2,1,False,5,1759,1714064368584,1714063292846,debugXjGk0:debugmXZVk,9,7,1,0,1
TEST,4323775,12,10,3,6,10,C100000001100,C100001000001,3,1,False,6,8680,1714064378065,1714063292846,debugXjGk0:debugmXZVk,7,5,0,0,0
TEST,4323775,12,10,3,6,10,C100000001100,C100000100100,3,2,False,7,7321,1714064386189,1714063292846,debugXjGk0:debugmXZVk,5,4,0,0,0
TEST,4323775,12,10,3,6,10,C100000001100,C100100000100,3,2,False,8,3616,1714064390607,1714063292846,debugXjGk0:debugmXZVk,4,3,0,0,0
TEST,4323775,12,10,3,6,10,C100000001100,C100000010100,3,2,False,9,4806,1714064396215,1714063292846,debugXjGk0:debugmXZVk,3,2,0,0,0
TEST,4323775,12,10,3,6,10,C100000001100,C100000001100,3,3,True,10,2334,1714064399352,1714063292846,debugXjGk0:debugmXZVk,2,1,0,0,0
TEST,5157061,12,10,3,6,1,C010001010000,C101010101010,6,0,False,1,20812,1714063382127,1714063302850,debugJNRVn:debugtlF0e,220,20,1,1,1
TEST,5157061,12,10,3,6,1,C010001010000,C010101010101,6,3,False,2,14678,1714063397620,1714063302850,debugJNRVn:debugtlF0e,20,20,0,1,1
TEST,5157061,12,10,3,6,1,C010001010000,C010101111000,6,3,False,3,19159,1714063417587,1714063302850,debugJNRVn:debugtlF0e,20,4,0,0,0
TEST,5157061,12,10,3,6,1,C010001010000,C010101000111,6,2,False,4,21147,1714063439546,1714063302850,debugJNRVn:debugtlF0e,4,3,0,0,0
TEST,5157061,12,10,3,6,1,C010001010000,C010100010111,6,2,False,5,25035,1714063465397,1714063302850,debugJNRVn:debugtlF0e,3,2,0,0,0
TEST,5157061,12,10,3,6,1,C010001010000,C110100001011,6,1,False,6,27540,1714063493749,1714063302850,debugJNRVn:debugtlF0e,2,2,0,0,0
TEST,5157061,12,10,3,6,1,C010001010000,C010101010100,5,3,False,7,21197,1714063515753,1714063302850,debugJNRVn:debugtlF0e,2,2,1,0,1
TEST,5157061,12,10,3,6,1,C010001010000,C111100100100,6,1,False,8,44853,1714063561414,1714063302850,debugJNRVn:debugtlF0e,2,2,0,0,0
TEST,5157061,12,10,3,6,1,C010001010000,C010101110001,6,3,False,9,60835,1714063623053,1714063302850,debugJNRVn:debugtlF0e,2,2,0,0,0
TEST,5157061,12,10,3,6,1,C010001010000,C010111010010,6,3,False,10,19905,1714063643771,1714063302850,debugJNRVn:debugtlF0e,2,2,0,0,0
TEST,5157061,12,10,3,6,1,C010001010000,C111111000000,6,2,False,11,25210,1714063669797,1714063302850,debugJNRVn:debugtlF0e,2,2,0,0,0
TEST,5157061,12,10,3,6,1,C010001010000,C010100001111,6,1,False,12,19772,1714063690372,1714063302850,debugJNRVn:debugtlF0e,2,2,0,0,0
TEST,5157061,12,10,3,6,1,C010001010000,C010101010101,6,3,False,13,22054,1714063713243,1714063302850,debugJNRVn:debugtlF0e,2,2,1,0,1
TEST,5157061,12,10,3,6,1,C010001010000,C110100010101,6,2,False,14,25133,1714063739180,1714063302850,debugJNRVn:debugtlF0e,2,2,0,0,0
TEST,5157061,12,10,3,6,1,C010001010000,C010100000001,3,1,False,15,18156,1714063758149,1714063302850,debugJNRVn:debugtlF0e,2,2,1,0,1
TEST,5157061,12,10,3,6,2,C000010010001,C101010101010,6,1,False,1,21615,1714063789379,1714063302850,debugJNRVn:debugtlF0e,220,90,1,1,1
TEST,5157061,12,10,3,6,2,C000010010001,C010101010101,6,2,False,2,9905,1714063800097,1714063302850,debugJNRVn:debugtlF0e,90,90,0,1,1
TEST,5157061,12,10,3,6,2,C000010010001,C111111000000,6,1,False,3,20641,1714063821549,1714063302850,debugJNRVn:debugtlF0e,90,36,0,0,0
TEST,5157061,12,10,3,6,2,C000010010001,C010000011111,6,2,False,4,37507,1714063859877,1714063302850,debugJNRVn:debugtlF0e,36,24,0,0,0
TEST,5157061,12,10,3,6,2,C000010010001,C010001010000,3,1,False,5,37233,1714063897916,1714063302850,debugJNRVn:debugtlF0e,24,14,1,0,1
TEST,5157061,12,10,3,6,2,C000010010001,C010101010011,6,2,False,6,40526,1714063939254,1714063302850,debugJNRVn:debugtlF0e,14,7,0,0,0
TEST,5157061,12,10,3,6,2,C000010010001,C111000000000,3,0,False,7,18498,1714063958555,1714063302850,debugJNRVn:debugtlF0e,7,4,1,0,1
TEST,5157061,12,10,3,6,2,C000010010001,C000111000000,3,1,False,8,5484,1714063964851,1714063302850,debugJNRVn:debugtlF0e,4,4,1,0,1
TEST,5157061,12,10,3,6,2,C000010010001,C010001000010,3,0,False,9,12067,1714063977725,1714063302850,debugJNRVn:debugtlF0e,4,2,1,0,1
TEST,5157061,12,10,3,6,2,C000010010001,C101010101001,6,2,False,10,13650,1714063992189,1714063302850,debugJNRVn:debugtlF0e,2,1,0,0,0
TEST,5157061,12,10,3,6,2,C000010010001,C111111000000,6,1,False,11,13876,1714064006876,1714063302850,debugJNRVn:debugtlF0e,1,1,1,0,1
TEST,5157061,12,10,3,6,2,C000010010001,C000000111111,6,2,False,12,14594,1714064022280,1714063302850,debugJNRVn:debugtlF0e,1,1,0,0,0
TEST,5157061,12,10,3,6,2,C000010010001,C110110110000,6,2,False,13,21220,1714064044308,1714063302850,debugJNRVn:debugtlF0e,1,1,0,0,0
TEST,5157061,12,10,3,6,2,C000010010001,C110110000011,6,2,False,14,14789,1714064059899,1714063302850,debugJNRVn:debugtlF0e,1,1,0,0,0
TEST,5157061,12,10,3,6,2,C000010010001,C000011011011,6,3,False,15,8571,1714064069283,1714063302850,debugJNRVn:debugtlF0e,1,1,0,0,0
TEST,5157061,12,10,3,6,3,C001000010100,C110110110000,6,1,False,1,11895,1714064089779,1714063302850,debugJNRVn:debugtlF0e,220,90,1,1,1
TEST,5157061,12,10,3,6,3,C001000010100,C000011011011,6,1,False,2,15040,1714064105635,1714063302850,debugJNRVn:debugtlF0e,90,34,0,0,0
TEST,5157061,12,10,3,6,3,C001000010100,C111000000111,6,2,False,3,10557,1714064117003,1714063302850,debugJNRVn:debugtlF0e,34,18,0,0,0
TEST,5157061,12,10,3,6,3,C001000010100,C001101101100,6,2,False,4,14749,1714064132557,1714063302850,debugJNRVn:debugtlF0e,18,18,0,0,0
TEST,5157061,12,10,3,6,3,C001000010100,C011011011000,6,2,False,5,13996,1714064147356,1714063302850,debugJNRVn:debugtlF0e,18,6,0,0,0
TEST,5157061,12,10,3,6,3,C001000010100,C110110110000,6,1,False,6,10788,1714064158947,1714063302850,debugJNRVn:debugtlF0e,6,6,1,0,1
TEST,5157061,12,10,3,6,3,C001000010100,C001101101100,6,2,False,7,11769,1714064171523,1714063302850,debugJNRVn:debugtlF0e,6,6,1,0,1
TEST,5157061,12,10,3,6,3,C001000010100,C000110110110,6,2,False,8,18589,1714064190924,1714063302850,debugJNRVn:debugtlF0e,6,2,0,0,0
TEST,5157061,12,10,3,6,3,C001000010100,C000011011011,6,1,False,9,8550,1714064200292,1714063302850,debugJNRVn:debugtlF0e,2,2,1,0,1
TEST,5157061,12,10,3,6,3,C001000010100,C000011101110,6,1,False,10,13292,1714064214393,1714063302850,debugJNRVn:debugtlF0e,2,1,0,0,0
TEST,5157061,12,10,3,6,3,C001000010100,C000111011100,6,2,False,11,14761,1714064229960,1714063302850,debugJNRVn:debugtlF0e,1,1,0,0,0
TEST,5157061,12,10,3,6,3,C001000010100,C111011100000,6,1,False,12,11015,1714064241780,1714063302850,debugJNRVn:debugtlF0e,1,1,0,0,0
TEST,5157061,12,10,3,6,3,C001000010100,C001110011100,6,3,False,13,18289,1714064260884,1714063302850,debugJNRVn:debugtlF0e,1,1,0,0,0
TEST,5157061,12,10,3,6,3,C001000010100,C001110011100,6,3,False,14,23220,1714064284922,1714063302850,debugJNRVn:debugtlF0e,1,1,1,0,1
TEST,5157061,12,10,3,6,3,C001000010100,C001110011100,6,3,False,15,9442,1714064295170,1714063302850,debugJNRVn:debugtlF0e,1,1,1,0,1
TEST,5157061,12,10,3,6,4,C000010110000,C110110110000,6,3,False,1,19434,1714064326252,1714063302850,debugJNRVn:debugtlF0e,220,20,1,1,1
TEST,5157061,12,10,3,6,4,C000010110000,C100100100000,3,1,False,2,6435,1714064333491,1714063302850,debugJNRVn:debugtlF0e,20,9,1,0,1
TEST,5157061,12,10,3,6,4,C000010110000,C010010010000,3,2,False,3,7794,1714064342091,1714063302850,debugJNRVn:debugtlF0e,9,9,1,0,1
TEST,5157061,12,10,3,6,4,C000010110000,C110010010000,4,2,False,4,39134,1714064382036,1714063302850,debugJNRVn:debugtlF0e,9,6,1,0,1
TEST,5157061,12,10,3,6,4,C000010110000,C100100100000,3,1,False,5,16497,1714064399348,1714063302850,debugJNRVn:debugtlF0e,6,6,1,0,1
TEST,5157061,12,10,3,6,4,C000010110000,C111011100000,6,2,False,6,13617,1714064413772,1714063302850,debugJNRVn:debugtlF0e,6,3,0,0,0
TEST,5157061,12,10,3,6,4,C000010110000,C111001110000,6,2,False,7,9611,1714064424195,1714063302850,debugJNRVn:debugtlF0e,3,1,0,0,0
TEST,5157061,12,10,3,6,4,C000010110000,C111000111000,6,2,False,8,10743,1714064435740,1714063302850,debugJNRVn:debugtlF0e,1,1,0,0,0
TEST,5157061,12,10,3,6,4,C000010110000,C011101110000,6,2,False,9,9605,1714064446147,1714063302850,debugJNRVn:debugtlF0e,1,1,0,0,0
TEST,5157061,12,10,3,6,4,C000010110000,C011100111000,6,2,False,10,8280,1714064455235,1714063302850,debugJNRVn:debugtlF0e,1,1,0,0,0
TEST,5157061,12,10,3,6,4,C000010110000,C100010001000,3,1,False,11,24571,1714064480619,1714063302850,debugJNRVn:debugtlF0e,1,1,0,0,0
TEST,5157061,12,10,3,6,4,C000010110000,C010100010000,3,1,False,12,20863,1714064502287,1714063302850,debugJNRVn:debugtlF0e,1,1,1,0,1
TEST,5157061,12,10,3,6,4,C000010110000,C100010100000,3,2,False,13,22598,1714064525698,1714063302850,debugJNRVn:debugtlF0e,1,1,1,0,1
TEST,5157061,12,10,3,6,4,C000010110000,C100011000000,3,1,False,14,10328,1714064536833,1714063302850,debugJNRVn:debugtlF0e,1,1,1,0,1
TEST,5157061,12,10,3,6,4,C000010110000,C100001100000,3,1,False,15,9051,1714064546691,1714063302850,debugJNRVn:debugtlF0e,1,1,1,0,1
TEST,5157061,12,10,3,6,5,C100100000010,C111001110000,6,1,False,1,11349,1714064566651,1714063302850,debugJNRVn:debugtlF0e,220,90,1,1,1
TEST,5157061,12,10,3,6,5,C100100000010,C011100111000,6,1,False,2,12238,1714064579692,1714063302850,debugJNRVn:debugtlF0e,90,40,0,0,0
TEST,5157061,12,10,3,6,5,C100100000010,C000011100111,6,1,False,3,12269,1714064592771,1714063302850,debugJNRVn:debugtlF0e,40,8,0,0,0
TEST,5157061,12,10,3,6,5,C100100000010,C000011100000,3,0,False,4,5854,1714064599435,1714063302850,debugJNRVn:debugtlF0e,8,6,1,0,1
TEST,5157061,12,10,3,6,5,C100100000010,C111000000000,3,1,False,5,4779,1714064605019,1714063302850,debugJNRVn:debugtlF0e,6,6,1,0,1
TEST,5157061,12,10,3,6,5,C100100000010,C000000000111,3,1,False,6,4597,1714064610427,1714063302850,debugJNRVn:debugtlF0e,6,6,1,0,1
TEST,5157061,12,10,3,6,5,C100100000010,C100000010001,3,1,False,7,9688,1714064620924,1714063302850,debugJNRVn:debugtlF0e,6,4,0,0,0
TEST,5157061,12,10,3,6,5,C100100000010,C100100000001,3,2,False,8,16506,1714064638235,1714063302850,debugJNRVn:debugtlF0e,4,2,0,0,0
TEST,5157061,12,10,3,6,5,C100100000010,C100000001001,3,1,False,9,35138,1714064674188,1714063302850,debugJNRVn:debugtlF0e,2,2,0,0,0
TEST,5157061,12,10,3,6,5,C100100000010,C111111000000,6,2,False,10,8541,1714064683547,1714063302850,debugJNRVn:debugtlF0e,2,2,0,0,0
TEST,5157061,12,10,3,6,5,C100100000010,C000000111111,6,1,False,11,14829,1714064699193,1714063302850,debugJNRVn:debugtlF0e,2,2,0,0,0
TEST,5157061,12,10,3,6,5,C100100000010,C000111111000,6,1,False,12,13409,1714064713435,1714063302850,debugJNRVn:debugtlF0e,2,2,0,0,0
TEST,5157061,12,10,3,6,5,C100100000010,C100001000001,3,1,False,13,9430,1714064723679,1714063302850,debugJNRVn:debugtlF0e,2,2,0,0,0
TEST,5157061,12,10,3,6,5,C100100000010,C100000100001,3,1,False,14,9510,1714064734003,1714063302850,debugJNRVn:debugtlF0e,2,2,0,0,0
TEST,5157061,12,10,3,6,5,C100100000010,C100010000001,3,1,False,15,7274,1714064742080,1714063302850,debugJNRVn:debugtlF0e,2,2,0,0,0
TEST,5157061,12,10,3,6,6,C000000100101,C111001110000,6,1,False,1,36079,1714064786539,1714063302850,debugJNRVn:debugtlF0e,220,90,1,1,1
TEST,5157061,12,10,3,6,6,C000000100101,C000001110111,6,3,False,2,10072,1714064797419,1714063302850,debugJNRVn:debugtlF0e,90,9,0,0,0
TEST,5157061,12,10,3,6,6,C000000100101,C000000100101,3,3,True,3,12747,1714064810971,1714063302850,debugJNRVn:debugtlF0e,9,1,1,0,1
TEST,5157061,12,10,3,6,7,C100100010000,C000000111111,6,1,False,1,12857,1714064833855,1714063302850,debugJNRVn:debugtlF0e,220,90,1,1,1
TEST,5157061,12,10,3,6,7,C100100010000,C111111000000,6,2,False,2,8497,1714064843162,1714063302850,debugJNRVn:debugtlF0e,90,90,0,1,1
TEST,5157061,12,10,3,6,7,C100100010000,C011111100000,6,1,False,3,8151,1714064852126,1714063302850,debugJNRVn:debugtlF0e,90,25,0,0,0
TEST,5157061,12,10,3,6,7,C100100010000,C111011100000,6,1,False,4,13928,1714064866864,1714063302850,debugJNRVn:debugtlF0e,25,5,0,0,0
TEST,5157061,12,10,3,6,7,C100100010000,C011100111000,6,2,False,5,9592,1714064877260,1714063302850,debugJNRVn:debugtlF0e,5,2,0,0,0
TEST,5157061,12,10,3,6,7,C100100010000,C001110011100,6,2,False,6,9140,1714064887202,1714063302850,debugJNRVn:debugtlF0e,2,2,0,0,0
TEST,5157061,12,10,3,6,7,C100100010000,C000111001110,6,1,False,7,8257,1714064896266,1714063302850,debugJNRVn:debugtlF0e,2,1,0,0,0
TEST,5157061,12,10,3,6,7,C100100010000,C000011111100,6,1,False,8,10166,1714064907235,1714063302850,debugJNRVn:debugtlF0e,1,1,0,0,0
TEST,5157061,12,10,3,6,7,C100100010000,C111101100000,6,2,False,9,10850,1714064918890,1714063302850,debugJNRVn:debugtlF0e,1,1,0,0,0
TEST,5157061,12,10,3,6,7,C100100010000,C011110011000,6,2,False,10,11510,1714064931203,1714063302850,debugJNRVn:debugtlF0e,1,1,0,0,0
TEST,5157061,12,10,3,6,7,C100100010000,C001111011000,6,2,False,11,7612,1714064939619,1714063302850,debugJNRVn:debugtlF0e,1,1,0,0,0
TEST,5157061,12,10,3,6,7,C100100010000,C000111100011,6,1,False,12,13868,1714064954298,1714063302850,debugJNRVn:debugtlF0e,1,1,0,0,0
TEST,5157061,12,10,3,6,7,C100100010000,C001111110000,6,2,False,13,16319,1714064971435,1714063302850,debugJNRVn:debugtlF0e,1,1,0,0,0
TEST,5157061,12,10,3,6,7,C100100010000,C001111011000,6,2,False,14,12387,1714064984635,1714063302850,debugJNRVn:debugtlF0e,1,1,1,0,1
TEST,5157061,12,10,3,6,7,C100100010000,C001111001100,6,1,False,15,10308,1714064995753,1714063302850,debugJNRVn:debugtlF0e,1,1,0,0,0
TEST,5157061,12,10,3,6,8,C000100010100,C000111111000,6,2,False,1,19639,1714065022490,1714063302850,debugJNRVn:debugtlF0e,220,90,1,1,1
TEST,5157061,12,10,3,6,8,C000100010100,C000011111100,6,2,False,2,12915,1714065036218,1714063302850,debugJNRVn:debugtlF0e,90,55,0,0,0
TEST,5157061,12,10,3,6,8,C000100010100,C000001111110,6,2,False,3,10118,1714065047139,1714063302850,debugJNRVn:debugtlF0e,55,32,0,0,0
TEST,5157061,12,10,3,6,8,C000100010100,C000000111111,6,2,False,4,7493,1714065055443,1714063302850,debugJNRVn:debugtlF0e,32,18,0,0,0
TEST,5157061,12,10,3,6,8,C000100010100,C011111100000,6,1,False,5,13399,1714065069659,1714063302850,debugJNRVn:debugtlF0e,18,10,0,0,0
TEST,5157061,12,10,3,6,8,C000100010100,C001111110000,6,2,False,6,11871,1714065082346,1714063302850,debugJNRVn:debugtlF0e,10,5,0,0,0
TEST,5157061,12,10,3,6,8,C000100010100,C000111111000,6,2,False,7,8318,1714065091474,1714063302850,debugJNRVn:debugtlF0e,5,5,1,0,1
TEST,5157061,12,10,3,6,8,C000100010100,C000011111100,6,2,False,8,8128,1714065100418,1714063302850,debugJNRVn:debugtlF0e,5,5,1,0,1
TEST,5157061,12,10,3,6,8,C000100010100,C000001111110,6,2,False,9,10248,1714065111474,1714063302850,debugJNRVn:debugtlF0e,5,5,1,0,1
TEST,5157061,12,10,3,6,8,C000100010100,C100001111100,6,2,False,10,12338,1714065124626,1714063302850,debugJNRVn:debugtlF0e,5,3,0,0,0
TEST,5157061,12,10,3,6,8,C000100010100,C010001111100,6,2,False,11,12915,1714065138351,1714063302850,debugJNRVn:debugtlF0e,3,3,0,0,0
TEST,5157061,12,10,3,6,8,C000100010100,C001001111100,6,2,False,12,13306,1714065152474,1714063302850,debugJNRVn:debugtlF0e,3,2,0,0,0
TEST,5157061,12,10,3,6,8,C000100010100,C000101111100,6,3,False,13,12824,1714065166106,1714063302850,debugJNRVn:debugtlF0e,2,1,0,0,0
TEST,5157061,12,10,3,6,8,C000100010100,C000101100000,3,1,False,14,21344,1714065188259,1714063302850,debugJNRVn:debugtlF0e,1,1,1,0,1
TEST,5157061,12,10,3,6,8,C000100010100,C000100011000,3,2,False,15,5762,1714065194834,1714063302850,debugJNRVn:debugtlF0e,1,1,1,0,1
TEST,5157061,12,10,3,6,9,C001000100100,C111111000000,6,1,False,1,11461,1714065213731,1714063302850,debugJNRVn:debugtlF0e,220,90,1,1,1
TEST,5157061,12,10,3,6,9,C001000100100,C000000111111,6,2,False,2,7820,1714065222354,1714063302850,debugJNRVn:debugtlF0e,90,90,0,1,1
TEST,5157061,12,10,3,6,9,C001000100100,C110000011011,6,0,False,3,13082,1714065236243,1714063302850,debugJNRVn:debugtlF0e,90,4,0,0,0
TEST,5157061,12,10,3,6,9,C001000100100,C111100100100,6,3,False,4,17823,1714065254882,1714063302850,debugJNRVn:debugtlF0e,4,2,0,0,0
TEST,5157061,12,10,3,6,9,C001000100100,C100000100100,3,2,False,5,23137,1714065278834,1714063302850,debugJNRVn:debugtlF0e,2,2,1,0,1
TEST,5157061,12,10,3,6,9,C001000100100,C110000100000,3,1,False,6,29075,1714065308714,1714063302850,debugJNRVn:debugtlF0e,2,2,1,0,1
TEST,5157061,12,10,3,6,9,C001000100100,C100000100100,3,2,False,7,11913,1714065321434,1714063302850,debugJNRVn:debugtlF0e,2,2,1,0,1
TEST,5157061,12,10,3,6,9,C001000100100,C100000010100,3,1,False,8,11398,1714065333634,1714063302850,debugJNRVn:debugtlF0e,2,2,0,0,0
TEST,5157061,12,10,3,6,9,C001000100100,C100000100100,3,2,False,9,22337,1714065356785,1714063302850,debugJNRVn:debugtlF0e,2,2,1,0,1
TEST,5157061,12,10,3,6,9,C001000100100,C100000010100,3,1,False,10,31587,1714065389178,1714063302850,debugJNRVn:debugtlF0e,2,2,1,0,1
TEST,5157061,12,10,3,6,9,C001000100100,C000100100100,3,2,False,11,21267,1714065411256,1714063302850,debugJNRVn:debugtlF0e,2,1,1,0,1
TEST,5157061,12,10,3,6,9,C001000100100,C001000100100,3,3,True,12,10683,1714065422751,1714063302850,debugJNRVn:debugtlF0e,1,1,1,0,1
TEST,5157061,12,10,3,6,10,C000010001010,C111111000000,6,1,False,1,10154,1714065439746,1714063302850,debugJNRVn:debugtlF0e,220,90,1,1,1
TEST,5157061,12,10,3,6,10,C000010001010,C000000111111,6,2,False,2,7356,1714065447906,1714063302850,debugJNRVn:debugtlF0e,90,90,0,1,1
TEST,5157061,12,10,3,6,10,C000010001010,C110000011011,6,2,False,3,11069,1714065459778,1714063302850,debugJNRVn:debugtlF0e,90,40,0,0,0
TEST,5157061,12,10,3,6,10,C000010001010,C110001100011,6,1,False,4,16489,1714065477076,1714063302850,debugJNRVn:debugtlF0e,40,17,0,0,0
TEST,5157061,12,10,3,6,10,C000010001010,C111100000011,6,1,False,5,12674,1714065490563,1714063302850,debugJNRVn:debugtlF0e,17,8,0,0,0
TEST,5157061,12,10,3,6,10,C000010001010,C000011100111,6,2,False,6,8470,1714065499842,1714063302850,debugJNRVn:debugtlF0e,8,4,0,0,0
TEST,5157061,12,10,3,6,10,C000010001010,C011001100110,6,1,False,7,11072,1714065511722,1714063302850,debugJNRVn:debugtlF0e,4,2,0,0,0
TEST,5157061,12,10,3,6,10,C000010001010,C110001100011,6,1,False,8,11090,1714065523619,1714063302850,debugJNRVn:debugtlF0e,2,2,1,0,1
TEST,5157061,12,10,3,6,10,C000010001010,C000000111111,6,2,False,9,21687,1714065546112,1714063302850,debugJNRVn:debugtlF0e,2,2,1,0,1
TEST,5157061,12,10,3,6,10,C000010001010,C111000000000,3,0,False,10,8581,1714065555498,1714063302850,debugJNRVn:debugtlF0e,2,2,1,0,1
TEST,5157061,12,10,3,6,10,C000010001010,C000111000000,3,1,False,11,4516,1714065560826,1714063302850,debugJNRVn:debugtlF0e,2,2,1,0,1
TEST,5157061,12,10,3,6,10,C000010001010,C000100000011,3,1,False,12,11601,1714065573234,1714063302850,debugJNRVn:debugtlF0e,2,2,1,0,1
TEST,5157061,12,10,3,6,10,C000010001010,C000100001100,3,1,False,13,6372,1714065580419,1714063302850,debugJNRVn:debugtlF0e,2,1,0,0,0
TEST,5157061,12,10,3,6,10,C000010001010,C000111111000,6,2,False,14,14932,1714065596154,1714063302850,debugJNRVn:debugtlF0e,1,1,0,0,0
TEST,5157061,12,10,3,6,10,C000010001010,C100100001000,3,1,False,15,11493,1714065608449,1714063302850,debugJNRVn:debugtlF0e,1,1,0,0,0
TEST,1100889,12,10,3,6,1,C001001000001,C101000010111,6,2,False,1,31133,1714063432933,1714063329850,debughQYDG:debug23jnV,220,90,1,1,1
TEST,1100889,12,10,3,6,1,C001001000001,C111111000000,6,2,False,2,17946,1714063451697,1714063329850,debughQYDG:debug23jnV,90,34,0,0,0
TEST,1100889,12,10,3,6,1,C001001000001,C111000111000,6,1,False,3,33756,1714063486273,1714063329850,debughQYDG:debug23jnV,34,18,0,0,0
TEST,1100889,12,10,3,6,1,C001001000001,C010001001111,6,2,False,4,16683,1714063503765,1714063329850,debughQYDG:debug23jnV,18,6,0,0,0
TEST,1100889,12,10,3,6,1,C001001000001,C100111010100,6,1,False,5,25914,1714063530481,1714063329850,debughQYDG:debug23jnV,6,2,0,0,0
TEST,1100889,12,10,3,6,1,C001001000001,C001110110001,6,2,False,6,7950,1714063539240,1714063329850,debughQYDG:debug23jnV,2,1,0,0,0
TEST,1100889,12,10,3,6,1,C001001000001,C010001111001,6,2,False,7,11229,1714063551282,1714063329850,debughQYDG:debug23jnV,1,1,0,0,0
TEST,1100889,12,10,3,6,1,C001001000001,C010110010101,6,1,False,8,13348,1714063565440,1714063329850,debughQYDG:debug23jnV,1,1,0,0,0
TEST,1100889,12,10,3,6,1,C001001000001,C101010101010,6,1,False,9,10423,1714063576679,1714063329850,debughQYDG:debug23jnV,1,1,0,0,0
TEST,1100889,12,10,3,6,1,C001001000001,C001000110111,6,2,False,10,12256,1714063589754,1714063329850,debughQYDG:debug23jnV,1,1,0,0,0
TEST,1100889,12,10,3,6,1,C001001000001,C001000110011,5,2,False,11,9882,1714063600448,1714063329850,debughQYDG:debug23jnV,1,1,1,0,1
TEST,1100889,12,10,3,6,1,C001001000001,C010100110011,6,1,False,12,21764,1714063623021,1714063329850,debughQYDG:debug23jnV,1,1,0,0,0
TEST,1100889,12,10,3,6,1,C001001000001,C001000110011,5,2,False,13,11890,1714063635724,1714063329850,debughQYDG:debug23jnV,1,1,1,0,1
TEST,1100889,12,10,3,6,1,C001001000001,C001111100001,6,3,False,14,35284,1714063671823,1714063329850,debughQYDG:debug23jnV,1,1,0,0,0
TEST,1100889,12,10,3,6,1,C001001000001,C101011010001,6,3,False,15,25561,1714063698199,1714063329850,debughQYDG:debug23jnV,1,1,0,0,0
TEST,1100889,12,10,3,6,2,C100000001100,C111000000000,3,1,False,1,12726,1714063718628,1714063329850,debughQYDG:debug23jnV,220,108,1,1,1
TEST,1100889,12,10,3,6,2,C100000001100,C011100000000,3,0,False,2,5488,1714063724925,1714063329850,debughQYDG:debug23jnV,108,28,0,0,0
TEST,1100889,12,10,3,6,2,C100000001100,C100011111000,6,2,False,3,22388,1714063748128,1714063329850,debughQYDG:debug23jnV,28,15,0,0,0
TEST,1100889,12,10,3,6,2,C100000001100,C100001111100,6,3,False,4,20112,1714063769045,1714063329850,debughQYDG:debug23jnV,15,4,0,0,0
TEST,1100889,12,10,3,6,2,C100000001100,C100001001111,6,3,False,5,24460,1714063794325,1714063329850,debughQYDG:debug23jnV,4,2,0,0,0
TEST,1100889,12,10,3,6,2,C100000001100,C100001001111,6,3,False,6,25922,1714063821065,1714063329850,debughQYDG:debug23jnV,2,2,1,0,1
TEST,1100889,12,10,3,6,2,C100000001100,C100001000111,5,2,False,7,22370,1714063844252,1714063329850,debughQYDG:debug23jnV,2,1,1,0,1
TEST,1100889,12,10,3,6,2,C100000001100,C100001001000,3,2,False,8,5942,1714063851005,1714063329850,debughQYDG:debug23jnV,1,1,1,0,1
TEST,1100889,12,10,3,6,2,C100000001100,C100000001100,3,3,True,9,20201,1714063872020,1714063329850,debughQYDG:debug23jnV,1,1,1,0,1
TEST,1100889,12,10,3,6,3,C000101000100,C111111000000,6,2,False,1,9174,1714063886923,1714063329850,debughQYDG:debug23jnV,220,90,1,1,1
TEST,1100889,12,10,3,6,3,C000101000100,C011111100000,6,2,False,2,6836,1714063894572,1714063329850,debughQYDG:debug23jnV,90,55,0,0,0
TEST,1100889,12,10,3,6,3,C000101000100,C001111110000,6,2,False,3,14332,1714063909711,1714063329850,debughQYDG:debug23jnV,55,32,0,0,0
TEST,1100889,12,10,3,6,3,C000101000100,C000111111000,6,2,False,4,9555,1714063920071,1714063329850,debughQYDG:debug23jnV,32,18,0,0,0
TEST,1100889,12,10,3,6,3,C000101000100,C000011111100,6,2,False,5,8075,1714063928962,1714063329850,debughQYDG:debug23jnV,18,10,0,0,0
TEST,1100889,12,10,3,6,3,C000101000100,C000001111110,6,2,False,6,6360,1714063936140,1714063329850,debughQYDG:debug23jnV,10,5,0,0,0
TEST,1100889,12,10,3,6,3,C000101000100,C000000111111,6,1,False,7,8230,1714063945187,1714063329850,debughQYDG:debug23jnV,5,5,0,0,0
TEST,1100889,12,10,3,6,3,C000101000100,C000001110000,3,1,False,8,16872,1714063962870,1714063329850,debughQYDG:debug23jnV,5,3,1,0,1
TEST,1100889,12,10,3,6,3,C000101000100,C000001001100,3,2,False,9,7218,1714063970894,1714063329850,debughQYDG:debug23jnV,3,2,1,0,1
TEST,1100889,12,10,3,6,3,C000101000100,C000001001010,3,1,False,10,4946,1714063976655,1714063329850,debughQYDG:debug23jnV,2,1,1,0,1
TEST,1100889,12,10,3,6,3,C000101000100,C000001000101,3,2,False,11,7643,1714063985109,1714063329850,debughQYDG:debug23jnV,1,1,0,0,0
TEST,1100889,12,10,3,6,3,C000101000100,C000011000100,3,2,False,12,78433,1714064064346,1714063329850,debughQYDG:debug23jnV,1,1,1,0,1
TEST,1100889,12,10,3,6,3,C000101000100,C000101000100,3,3,True,13,8601,1714064073754,1714063329850,debughQYDG:debug23jnV,1,1,0,0,0
TEST,1100889,12,10,3,6,4,C000010100100,C111000000111,6,1,False,1,10635,1714064091760,1714063329850,debughQYDG:debug23jnV,220,90,1,1,1
TEST,1100889,12,10,3,6,4,C000010100100,C111111000000,6,1,False,2,8346,1714064100921,1714063329850,debughQYDG:debug23jnV,90,36,0,0,0
TEST,1100889,12,10,3,6,4,C000010100100,C011111100000,6,2,False,3,7833,1714064109571,1714063329850,debughQYDG:debug23jnV,36,13,0,0,0
TEST,1100889,12,10,3,6,4,C000010100100,C010000100000,2,1,False,4,42405,1714064152784,1714063329850,debughQYDG:debug23jnV,13,11,1,0,1
TEST,1100889,12,10,3,6,4,C000010100100,C010000100000,2,1,False,5,17760,1714064171361,1714063329850,debughQYDG:debug23jnV,11,11,1,0,1
TEST,1100889,12,10,3,6,4,C000010100100,C010000011000,3,0,False,6,23001,1714064195168,1714063329850,debughQYDG:debug23jnV,11,9,0,0,0
TEST,1100889,12,10,3,6,4,C000010100100,C000000100111,4,2,False,7,20231,1714064216207,1714063329850,debughQYDG:debug23jnV,9,9,0,0,0
TEST,1100889,12,10,3,6,4,C000010100100,C000010100100,3,3,True,8,7988,1714064225012,1714063329850,debughQYDG:debug23jnV,9,1,0,0,0
TEST,1100889,12,10,3,6,5,C011000000010,C111111000000,6,2,False,1,8937,1714064237665,1714063329850,debughQYDG:debug23jnV,220,90,1,1,1
TEST,1100889,12,10,3,6,5,C011000000010,C011111100000,6,2,False,2,6228,1714064244700,1714063329850,debughQYDG:debug23jnV,90,55,0,0,0
TEST,1100889,12,10,3,6,5,C011000000010,C001111100000,5,1,False,3,10595,1714064256109,1714063329850,debughQYDG:debug23jnV,55,21,1,0,1
TEST,1100889,12,10,3,6,5,C011000000010,C010010011110,6,2,False,4,30310,1714064287234,1714063329850,debughQYDG:debug23jnV,21,13,0,0,0
TEST,1100889,12,10,3,6,5,C011000000010,C010010010000,3,1,False,5,10291,1714064298332,1714063329850,debughQYDG:debug23jnV,13,9,1,0,1
TEST,1100889,12,10,3,6,5,C011000000010,C010000001100,3,1,False,6,9520,1714064308664,1714063329850,debughQYDG:debug23jnV,9,3,1,0,1
TEST,1100889,12,10,3,6,5,C011000000010,C010010000010,3,2,False,7,22471,1714064331938,1714063329850,debughQYDG:debug23jnV,3,3,1,0,1
TEST,1100889,12,10,3,6,5,C011000000010,C010010000000,2,1,False,8,38273,1714064371022,1714063329850,debughQYDG:debug23jnV,3,3,1,0,1
TEST,1100889,12,10,3,6,5,C011000000010,C000011000000,2,0,False,9,19078,1714064390905,1714063329850,debughQYDG:debug23jnV,3,2,1,0,1
TEST,1100889,12,10,3,6,5,C011000000010,C010000000110,3,2,False,10,6631,1714064398346,1714063329850,debughQYDG:debug23jnV,2,2,1,0,1
TEST,1100889,12,10,3,6,5,C011000000010,C010000000011,3,2,False,11,27344,1714064426496,1714063329850,debughQYDG:debug23jnV,2,2,0,0,0
TEST,1100889,12,10,3,6,5,C011000000010,C010000100010,3,2,False,12,24543,1714064451854,1714063329850,debughQYDG:debug23jnV,2,2,0,0,0
TEST,1100889,12,10,3,6,5,C011000000010,C011000000010,3,3,True,13,8596,1714064461265,1714063329850,debughQYDG:debug23jnV,2,1,0,0,0
TEST,1100889,12,10,3,6,6,C000000100011,C111111000000,6,0,False,1,6886,1714064475014,1714063329850,debughQYDG:debug23jnV,220,20,1,1,1
TEST,1100889,12,10,3,6,6,C000000100011,C000000111111,6,3,False,2,10639,1714064486468,1714063329850,debughQYDG:debug23jnV,20,20,0,1,1
TEST,1100889,12,10,3,6,6,C000000100011,C000000111000,3,1,False,3,3941,1714064491214,1714063329850,debughQYDG:debug23jnV,20,9,1,0,1
TEST,1100889,12,10,3,6,6,C000000100011,C000000010011,3,2,False,4,8378,1714064500410,1714063329850,debughQYDG:debug23jnV,9,4,1,0,1
TEST,1100889,12,10,3,6,6,C000000100011,C000000010110,3,1,False,5,27370,1714064528596,1714063329850,debughQYDG:debug23jnV,4,2,1,0,1
TEST,1100889,12,10,3,6,6,C000000100011,C000000110001,3,2,False,6,13506,1714064542919,1714063329850,debughQYDG:debug23jnV,2,1,1,0,1
TEST,1100889,12,10,3,6,6,C000000100011,C000000111000,3,1,False,7,18286,1714064562016,1714063329850,debughQYDG:debug23jnV,1,1,1,0,1
TEST,1100889,12,10,3,6,6,C000000100011,C000000010000,1,0,False,8,3252,1714064566083,1714063329850,debughQYDG:debug23jnV,1,1,1,0,1
TEST,1100889,12,10,3,6,6,C000000100011,C000000101001,3,2,False,9,4928,1714064571820,1714063329850,debughQYDG:debug23jnV,1,1,1,0,1
TEST,1100889,12,10,3,6,6,C000000100011,C000000101100,3,1,False,10,4773,1714064577406,1714063329850,debughQYDG:debug23jnV,1,1,1,0,1
TEST,1100889,12,10,3,6,6,C000000100011,C000000101000,2,1,False,11,3802,1714064582017,1714063329850,debughQYDG:debug23jnV,1,1,1,0,1
TEST,1100889,12,10,3,6,6,C000000100011,C000000001101,3,1,False,12,33955,1714064616778,1714063329850,debughQYDG:debug23jnV,1,1,1,0,1
TEST,1100889,12,10,3,6,6,C000000100011,C000000010011,3,2,False,13,9097,1714064626692,1714063329850,debughQYDG:debug23jnV,1,1,1,0,1
TEST,1100889,12,10,3,6,6,C000000100011,C000000000011,2,2,False,14,4154,1714064631663,1714063329850,debughQYDG:debug23jnV,1,1,1,0,1
TEST,1100889,12,10,3,6,6,C000000100011,C000000000111,3,2,False,15,4980,1714064637447,1714063329850,debughQYDG:debug23jnV,1,1,1,0,1
TEST,1100889,12,10,3,6,7,C100100000010,C111000000000,3,1,False,1,6375,1714064647308,1714063329850,debughQYDG:debug23jnV,220,108,1,1,1
TEST,1100889,12,10,3,6,7,C100100000010,C010111110000,6,1,False,2,7693,1714064655810,1714063329850,debughQYDG:debug23jnV,108,46,0,0,0
TEST,1100889,12,10,3,6,7,C100100000010,C010000001110,4,1,False,3,8007,1714064664631,1714063329850,debughQYDG:debug23jnV,46,30,0,0,0
TEST,1100889,12,10,3,6,7,C100100000010,C010000000001,2,0,False,4,22195,1714064687644,1714063329850,debughQYDG:debug23jnV,30,30,0,0,0
TEST,1100889,12,10,3,6,7,C100100000010,C100110001110,6,3,False,5,38632,1714064727082,1714063329850,debughQYDG:debug23jnV,30,6,0,0,0
TEST,1100889,12,10,3,6,7,C100100000010,C100000000110,3,2,False,6,8211,1714064736103,1714063329850,debughQYDG:debug23jnV,6,4,1,0,1
TEST,1100889,12,10,3,6,7,C100100000010,C100010000010,3,2,False,7,4547,1714064741465,1714063329850,debughQYDG:debug23jnV,4,2,1,0,1
TEST,1100889,12,10,3,6,7,C100100000010,C100110000000,3,2,False,8,6096,1714064748375,1714063329850,debughQYDG:debug23jnV,2,2,1,0,1
TEST,1100889,12,10,3,6,7,C100100000010,C100010001000,3,1,False,9,12274,1714064761455,1714063329850,debughQYDG:debug23jnV,2,1,1,0,1
TEST,1100889,12,10,3,6,7,C100100000010,C100100000100,3,2,False,10,11996,1714064774263,1714063329850,debughQYDG:debug23jnV,1,1,1,0,1
TEST,1100889,12,10,3,6,7,C100100000010,C100100000010,3,3,True,11,9465,1714064784545,1714063329850,debughQYDG:debug23jnV,1,1,1,0,1
TEST,1100889,12,10,3,6,8,C001010010000,C111000000000,3,1,False,1,6526,1714064794330,1714063329850,debughQYDG:debug23jnV,220,108,1,1,1
TEST,1100889,12,10,3,6,8,C001010010000,C011000000000,2,1,False,2,3574,1714064798707,1714063329850,debughQYDG:debug23jnV,108,72,1,0,1
TEST,1100889,12,10,3,6,8,C001010010000,C010111110000,6,2,False,3,11346,1714064810869,1714063329850,debughQYDG:debug23jnV,72,30,0,0,0
TEST,1100889,12,10,3,6,8,C001010010000,C010100001000,3,0,False,4,4777,1714064816457,1714063329850,debughQYDG:debug23jnV,30,6,0,0,0
TEST,1100889,12,10,3,6,8,C001010010000,C001011000000,3,2,False,5,26611,1714064843886,1714063329850,debughQYDG:debug23jnV,6,4,0,0,0
TEST,1100889,12,10,3,6,8,C001010010000,C001010000000,2,2,False,6,3456,1714064848155,1714063329850,debughQYDG:debug23jnV,4,2,1,0,1
TEST,1100889,12,10,3,6,8,C001010010000,C001010000100,3,2,False,7,10356,1714064859323,1714063329850,debughQYDG:debug23jnV,2,2,0,0,0
TEST,1100889,12,10,3,6,8,C001010010000,C001010000011,4,2,False,8,6500,1714064866633,1714063329850,debughQYDG:debug23jnV,2,2,0,0,0
TEST,1100889,12,10,3,6,8,C001010010000,C001010001100,4,2,False,9,9750,1714064877193,1714063329850,debughQYDG:debug23jnV,2,2,0,0,0
TEST,1100889,12,10,3,6,8,C001010010000,C001011100000,4,2,False,10,48805,1714064926805,1714063329850,debughQYDG:debug23jnV,2,1,0,0,0
TEST,1100889,12,10,3,6,8,C001010010000,C001010010000,3,3,True,11,5473,1714064933092,1714063329850,debughQYDG:debug23jnV,1,1,0,0,0
TEST,1100889,12,10,3,6,9,C001010100000,C111111000000,6,2,False,1,7798,1714064943993,1714063329850,debughQYDG:debug23jnV,220,90,1,1,1
TEST,1100889,12,10,3,6,9,C001010100000,C011111100000,6,3,False,2,6714,1714064951517,1714063329850,debughQYDG:debug23jnV,90,10,0,0,0
TEST,1100889,12,10,3,6,9,C001010100000,C011100000000,3,1,False,3,6744,1714064959076,1714063329850,debughQYDG:debug23jnV,10,6,1,0,1
TEST,1100889,12,10,3,6,9,C001010100000,C010011100000,4,2,False,4,6674,1714064966555,1714063329850,debughQYDG:debug23jnV,6,4,1,0,1
TEST,1100889,12,10,3,6,9,C001010100000,C010010000000,2,1,False,5,4171,1714064971533,1714063329850,debughQYDG:debug23jnV,4,2,1,0,1
TEST,1100889,12,10,3,6,9,C001010100000,C010001100000,3,1,False,6,6221,1714064978564,1714063329850,debughQYDG:debug23jnV,2,2,1,0,1
TEST,1100889,12,10,3,6,9,C001010100000,C010010000000,2,1,False,7,67427,1714065046797,1714063329850,debughQYDG:debug23jnV,2,2,1,0,1
TEST,1100889,12,10,3,6,9,C001010100000,C000001100000,2,1,False,8,2553,1714065050159,1714063329850,debughQYDG:debug23jnV,2,2,1,0,1
TEST,1100889,12,10,3,6,9,C001010100000,C010001000000,2,0,False,9,3699,1714065054669,1714063329850,debughQYDG:debug23jnV,2,2,1,0,1
TEST,1100889,12,10,3,6,9,C001010100000,C001000100000,2,2,False,10,20182,1714065075662,1714063329850,debughQYDG:debug23jnV,2,1,1,0,1
TEST,1100889,12,10,3,6,9,C001010100000,C001100100000,3,2,False,11,3576,1714065080053,1714063329850,debughQYDG:debug23jnV,1,1,1,0,1
TEST,1100889,12,10,3,6,9,C001010100000,C001010100000,3,3,True,12,5416,1714065086273,1714063329850,debughQYDG:debug23jnV,1,1,1,0,1
TEST,1100889,12,10,3,6,10,C100000010001,C111111000000,6,1,False,1,6116,1714065097535,1714063329850,debughQYDG:debug23jnV,220,90,1,1,1
TEST,1100889,12,10,3,6,10,C100000010001,C000000110000,2,1,False,2,9324,1714065107668,1714063329850,debughQYDG:debug23jnV,90,48,0,1,1
TEST,1100889,12,10,3,6,10,C100000010001,C000001100000,2,0,False,3,3503,1714065111977,1714063329850,debughQYDG:debug23jnV,48,20,0,0,0
TEST,1100889,12,10,3,6,10,C100000010001,C011000010000,3,1,False,4,19006,1714065131804,1714063329850,debughQYDG:debug23jnV,20,12,0,0,0
TEST,1100889,12,10,3,6,10,C100000010001,C010000000000,1,0,False,5,2827,1714065135436,1714063329850,debughQYDG:debug23jnV,12,12,1,0,1
TEST,1100889,12,10,3,6,10,C100000010001,C001000011000,3,1,False,6,25357,1714065161610,1714063329850,debughQYDG:debug23jnV,12,9,0,0,0
TEST,1100889,12,10,3,6,10,C100000010001,C000010010000,2,1,False,7,34144,1714065196557,1714063329850,debughQYDG:debug23jnV,9,6,0,0,0
TEST,1100889,12,10,3,6,10,C100000010001,C100000010000,2,2,False,8,5794,1714065203159,1714063329850,debughQYDG:debug23jnV,6,3,0,0,0
TEST,1100889,12,10,3,6,10,C100000010001,C100000011100,4,2,False,9,7826,1714065211801,1714063329850,debughQYDG:debug23jnV,3,2,0,0,0
TEST,1100889,12,10,3,6,10,C100000010001,C100000010010,3,2,False,10,5077,1714065217694,1714063329850,debughQYDG:debug23jnV,2,1,0,0,0
TEST,1100889,12,10,3,6,10,C100000010001,C100000010001,3,3,True,11,4246,1714065222744,1714063329850,debughQYDG:debug23jnV,1,1,0,0,0
TEST,6828633,12,10,3,6,1,C000110010000,C101100110001,6,2,False,1,30577,1714063443877,1714063353064,debuggVugq:debugd3ZlU,220,90,1,1,1
TEST,6828633,12,10,3,6,1,C000110010000,C101000100001,4,0,False,2,23400,1714063468083,1714063353064,debuggVugq:debugd3ZlU,90,6,1,0,1
TEST,6828633,12,10,3,6,1,C000110010000,C010100010010,4,2,False,3,34075,1714063502959,1714063353064,debuggVugq:debugd3ZlU,6,4,0,0,0
TEST,6828633,12,10,3,6,1,C000110010000,C000101010000,3,2,False,4,26761,1714063530525,1714063353064,debuggVugq:debugd3ZlU,4,3,0,0,0
TEST,6828633,12,10,3,6,1,C000110010000,C000100011000,3,2,False,5,8352,1714063539679,1714063353064,debuggVugq:debugd3ZlU,3,2,0,0,0
TEST,6828633,12,10,3,6,1,C000110010000,C000110010000,3,3,True,6,7112,1714063547601,1714063353064,debuggVugq:debugd3ZlU,2,1,0,0,0
TEST,6828633,12,10,3,6,2,C010001000001,C100100010010,4,0,False,1,6035,1714063558274,1714063353064,debuggVugq:debugd3ZlU,220,56,1,1,1
TEST,6828633,12,10,3,6,2,C010001000001,C010010001001,4,2,False,2,7739,1714063566825,1714063353064,debuggVugq:debugd3ZlU,56,24,0,1,1
TEST,6828633,12,10,3,6,2,C010001000001,C010000001000,2,1,False,3,15840,1714063583472,1714063353064,debuggVugq:debugd3ZlU,24,16,1,0,1
TEST,6828633,12,10,3,6,2,C010001000001,C000000001000,1,0,False,4,19726,1714063604006,1714063353064,debuggVugq:debugd3ZlU,16,8,1,0,1
TEST,6828633,12,10,3,6,2,C010001000001,C010001100000,3,2,False,5,25085,1714063629892,1714063353064,debuggVugq:debugd3ZlU,8,4,0,0,0
TEST,6828633,12,10,3,6,2,C010001000001,C010001000100,3,2,False,6,11885,1714063642586,1714063353064,debuggVugq:debugd3ZlU,4,2,0,0,0
TEST,6828633,12,10,3,6,2,C010001000001,C010000100100,3,1,False,7,3882,1714063647276,1714063353064,debuggVugq:debugd3ZlU,2,2,0,0,0
TEST,6828633,12,10,3,6,2,C010001000001,C010001000100,3,2,False,8,5579,1714063653658,1714063353064,debuggVugq:debugd3ZlU,2,2,1,0,1
TEST,6828633,12,10,3,6,2,C010001000001,C011001000100,4,2,False,9,16510,1714063670970,1714063353064,debuggVugq:debugd3ZlU,2,2,0,0,0
TEST,6828633,12,10,3,6,2,C010001000001,C010000000100,2,1,False,10,25557,1714063697328,1714063353064,debuggVugq:debugd3ZlU,2,2,1,0,1
TEST,6828633,12,10,3,6,2,C010001000001,C010001000010,3,2,False,11,24737,1714063722870,1714063353064,debuggVugq:debugd3ZlU,2,2,0,0,0
TEST,6828633,12,10,3,6,2,C010001000001,C010001000001,3,3,True,12,77663,1714063801340,1714063353064,debuggVugq:debugd3ZlU,2,1,0,0,0
TEST,6828633,12,10,3,6,3,C001000100010,C100000010010,3,1,False,1,22370,1714063828459,1714063353064,debuggVugq:debugd3ZlU,220,108,1,1,1
TEST,6828633,12,10,3,6,3,C001000100010,C100000000000,1,0,False,2,3011,1714063832276,1714063353064,debuggVugq:debugd3ZlU,108,72,1,0,1
TEST,6828633,12,10,3,6,3,C001000100010,C000000010000,1,0,False,3,1527,1714063834608,1714063353064,debuggVugq:debugd3ZlU,72,36,1,0,1
TEST,6828633,12,10,3,6,3,C001000100010,C000001000010,2,1,False,4,15363,1714063850776,1714063353064,debuggVugq:debugd3ZlU,36,28,0,0,0
TEST,6828633,12,10,3,6,3,C001000100010,C000000000011,2,1,False,5,3266,1714063854856,1714063353064,debuggVugq:debugd3ZlU,28,21,0,0,0
TEST,6828633,12,10,3,6,3,C001000100010,C010000000010,2,1,False,6,4208,1714063859866,1714063353064,debuggVugq:debugd3ZlU,21,15,0,0,0
TEST,6828633,12,10,3,6,3,C001000100010,C001000000010,2,2,False,7,7682,1714063868356,1714063353064,debuggVugq:debugd3ZlU,15,5,0,0,0
TEST,6828633,12,10,3,6,3,C001000100010,C001100000010,3,2,False,8,7244,1714063876414,1714063353064,debuggVugq:debugd3ZlU,5,4,0,0,0
TEST,6828633,12,10,3,6,3,C001000100010,C001010000010,3,2,False,9,8128,1714063885348,1714063353064,debuggVugq:debugd3ZlU,4,3,0,0,0
TEST,6828633,12,10,3,6,3,C001000100010,C001000100010,3,3,True,10,13257,1714063899408,1714063353064,debuggVugq:debugd3ZlU,3,1,0,0,0
TEST,6828633,12,10,3,6,4,C000110000100,C100000100001,3,0,False,1,6689,1714063909070,1714063353064,debuggVugq:debugd3ZlU,220,84,1,1,1
TEST,6828633,12,10,3,6,4,C000110000100,C010000010010,3,0,False,2,5168,1714063915044,1714063353064,debuggVugq:debugd3ZlU,84,20,0,1,1
TEST,6828633,12,10,3,6,4,C000110000100,C001001000100,3,1,False,3,6979,1714063922836,1714063353064,debuggVugq:debugd3ZlU,20,9,0,1,1
TEST,6828633,12,10,3,6,4,C000110000100,C001000000000,1,0,False,4,5337,1714063928978,1714063353064,debuggVugq:debugd3ZlU,9,6,1,0,1
TEST,6828633,12,10,3,6,4,C000110000100,C000001000000,1,0,False,5,1364,1714063931147,1714063353064,debuggVugq:debugd3ZlU,6,3,1,0,1
TEST,6828633,12,10,3,6,4,C000110000100,C000100001100,3,2,False,6,22829,1714063954781,1714063353064,debuggVugq:debugd3ZlU,3,2,0,0,0
TEST,6828633,12,10,3,6,4,C000110000100,C000110000100,3,3,True,7,10386,1714063965969,1714063353064,debuggVugq:debugd3ZlU,2,1,0,0,0
TEST,6828633,12,10,3,6,5,C001001000100,C101010000000,3,1,False,1,3811,1714063973524,1714063353064,debuggVugq:debugd3ZlU,220,108,1,1,1
TEST,6828633,12,10,3,6,5,C001001000100,C100000000000,1,0,False,2,3970,1714063978298,1714063353064,debuggVugq:debugd3ZlU,108,72,1,0,1
TEST,6828633,12,10,3,6,5,C001001000100,C001000000000,1,1,False,3,1564,1714063980670,1714063353064,debuggVugq:debugd3ZlU,72,36,1,0,1
TEST,6828633,12,10,3,6,5,C001001000100,C001001001000,3,2,False,4,14402,1714063995878,1714063353064,debuggVugq:debugd3ZlU,36,14,0,0,0
TEST,6828633,12,10,3,6,5,C001001000100,C001001000000,2,2,False,5,2534,1714063999220,1714063353064,debuggVugq:debugd3ZlU,14,7,1,0,1
TEST,6828633,12,10,3,6,5,C001001000100,C001001000100,3,3,True,6,15755,1714064015778,1714063353064,debuggVugq:debugd3ZlU,7,1,0,0,0
TEST,6828633,12,10,3,6,6,C001000010001,C000001110000,3,1,False,1,8428,1714064027978,1714063353064,debuggVugq:debugd3ZlU,220,108,1,1,1
TEST,6828633,12,10,3,6,6,C001000010001,C000001000000,1,0,False,2,1585,1714064030365,1714063353064,debuggVugq:debugd3ZlU,108,72,1,0,1
TEST,6828633,12,10,3,6,6,C001000010001,C000000100000,1,0,False,3,1081,1714064032250,1714063353064,debuggVugq:debugd3ZlU,72,36,1,0,1
TEST,6828633,12,10,3,6,6,C001000010001,C100000010001,3,2,False,4,8465,1714064041518,1714063353064,debuggVugq:debugd3ZlU,36,14,0,0,0
TEST,6828633,12,10,3,6,6,C001000010001,C000000010001,2,2,False,5,3444,1714064045765,1714063353064,debuggVugq:debugd3ZlU,14,7,1,0,1
TEST,6828633,12,10,3,6,6,C001000010001,C010000010001,3,2,False,6,7667,1714064054236,1714063353064,debuggVugq:debugd3ZlU,7,6,0,0,0
TEST,6828633,12,10,3,6,6,C001000010001,C001000010001,3,3,True,7,3893,1714064058933,1714063353064,debuggVugq:debugd3ZlU,6,1,0,0,0
TEST,6828633,12,10,3,6,7,C001100000100,C100010000100,3,1,False,1,3201,1714064066034,1714063353064,debuggVugq:debugd3ZlU,220,108,1,1,1
TEST,6828633,12,10,3,6,7,C001100000100,C100000000000,1,0,False,2,1430,1714064068267,1714063353064,debuggVugq:debugd3ZlU,108,72,1,0,1
TEST,6828633,12,10,3,6,7,C001100000100,C000010000000,1,0,False,3,1249,1714064070319,1714063353064,debuggVugq:debugd3ZlU,72,36,1,0,1
TEST,6828633,12,10,3,6,7,C001100000100,C000000001110,3,1,False,4,5788,1714064076913,1714063353064,debuggVugq:debugd3ZlU,36,21,0,0,0
TEST,6828633,12,10,3,6,7,C001100000100,C011000000100,3,2,False,5,5871,1714064083588,1714063353064,debuggVugq:debugd3ZlU,21,10,0,0,0
TEST,6828633,12,10,3,6,7,C001100000100,C010100000100,3,2,False,6,3847,1714064088237,1714063353064,debuggVugq:debugd3ZlU,10,5,0,0,0
TEST,6828633,12,10,3,6,7,C001100000100,C001001000100,3,2,False,7,7258,1714064096306,1714063353064,debuggVugq:debugd3ZlU,5,2,0,0,0
TEST,6828633,12,10,3,6,7,C001100000100,C001000100100,3,2,False,8,4544,1714064101656,1714063353064,debuggVugq:debugd3ZlU,2,1,0,0,0
TEST,6828633,12,10,3,6,7,C001100000100,C001000010100,3,2,False,9,3542,1714064106000,1714063353064,debuggVugq:debugd3ZlU,1,1,0,0,0
TEST,6828633,12,10,3,6,7,C001100000100,C001000000101,3,2,False,10,4655,1714064111462,1714063353064,debuggVugq:debugd3ZlU,1,1,0,0,0
TEST,6828633,12,10,3,6,7,C001100000100,C011000000100,3,2,False,11,28841,1714064141112,1714063353064,debuggVugq:debugd3ZlU,1,1,1,0,1
TEST,6828633,12,10,3,6,7,C001100000100,C001100000100,3,3,True,12,8693,1714064150610,1714063353064,debuggVugq:debugd3ZlU,1,1,0,0,0
TEST,6828633,12,10,3,6,8,C110000000100,C100100010000,3,1,False,1,3428,1714064157943,1714063353064,debuggVugq:debugd3ZlU,220,108,1,1,1
TEST,6828633,12,10,3,6,8,C110000000100,C100010000000,2,1,False,2,3516,1714064162262,1714063353064,debuggVugq:debugd3ZlU,108,44,0,0,0
TEST,6828633,12,10,3,6,8,C110000000100,C010100000000,2,1,False,3,11395,1714064174460,1714063353064,debuggVugq:debugd3ZlU,44,15,0,0,0
TEST,6828633,12,10,3,6,8,C110000000100,C001100000000,2,0,False,4,4583,1714064179853,1714063353064,debuggVugq:debugd3ZlU,15,7,0,0,0
TEST,6828633,12,10,3,6,8,C110000000100,C100100000000,2,1,False,5,30421,1714064211078,1714063353064,debuggVugq:debugd3ZlU,7,6,1,0,1
TEST,6828633,12,10,3,6,8,C110000000100,C100000000000,1,1,False,6,19503,1714064231386,1714063353064,debuggVugq:debugd3ZlU,6,6,1,0,1
TEST,6828633,12,10,3,6,8,C110000000100,C110000000000,2,2,False,7,25102,1714064257296,1714063353064,debuggVugq:debugd3ZlU,6,6,0,0,0
TEST,6828633,12,10,3,6,8,C110000000100,C110001000000,3,2,False,8,16757,1714064274855,1714063353064,debuggVugq:debugd3ZlU,6,5,0,0,0
TEST,6828633,12,10,3,6,8,C110000000100,C110000100000,3,2,False,9,3876,1714064279533,1714063353064,debuggVugq:debugd3ZlU,5,4,0,0,0
TEST,6828633,12,10,3,6,8,C110000000100,C110000001000,3,2,False,10,4005,1714064284342,1714063353064,debuggVugq:debugd3ZlU,4,3,0,0,0
TEST,6828633,12,10,3,6,8,C110000000100,C110000000100,3,3,True,11,2914,1714064288060,1714063353064,debuggVugq:debugd3ZlU,3,1,0,0,0
TEST,6828633,12,10,3,6,9,C000000100101,C100100100000,3,1,False,1,4600,1714064296278,1714063353064,debuggVugq:debugd3ZlU,220,108,1,1,1
TEST,6828633,12,10,3,6,9,C000000100101,C000100001000,2,0,False,2,5887,1714064302971,1714063353064,debuggVugq:debugd3ZlU,108,56,0,0,0
TEST,6828633,12,10,3,6,9,C000000100101,C110000000000,2,0,False,3,6309,1714064310084,1714063353064,debuggVugq:debugd3ZlU,56,21,0,0,0
TEST,6828633,12,10,3,6,9,C000000100101,C001000100000,2,1,False,4,5879,1714064316766,1714063353064,debuggVugq:debugd3ZlU,21,15,0,0,0
TEST,6828633,12,10,3,6,9,C000000100101,C000010100000,2,1,False,5,7044,1714064324615,1714063353064,debuggVugq:debugd3ZlU,15,10,0,0,0
TEST,6828633,12,10,3,6,9,C000000100101,C000001100000,2,1,False,6,1835,1714064327252,1714063353064,debuggVugq:debugd3ZlU,10,6,0,0,0
TEST,6828633,12,10,3,6,9,C000000100101,C000000110000,2,1,False,7,2872,1714064330926,1714063353064,debuggVugq:debugd3ZlU,6,3,0,0,0
TEST,6828633,12,10,3,6,9,C000000100101,C000000100100,2,2,False,8,2985,1714064334718,1714063353064,debuggVugq:debugd3ZlU,3,2,0,0,0
TEST,6828633,12,10,3,6,9,C000000100101,C000000100101,3,3,True,9,2589,1714064338109,1714063353064,debuggVugq:debugd3ZlU,2,1,0,0,0
TEST,6828633,12,10,3,6,10,C010001100000,C101000100000,3,1,False,1,4046,1714064345846,1714063353064,debuggVugq:debugd3ZlU,220,108,1,1,1
TEST,6828633,12,10,3,6,10,C010001100000,C100100000000,2,0,False,2,6198,1714064352846,1714063353064,debuggVugq:debugd3ZlU,108,56,0,0,0
TEST,6828633,12,10,3,6,10,C010001100000,C001010000000,2,0,False,3,4027,1714064357680,1714063353064,debuggVugq:debugd3ZlU,56,21,0,0,0
TEST,6828633,12,10,3,6,10,C010001100000,C010000100000,2,2,False,4,6009,1714064364491,1714063353064,debuggVugq:debugd3ZlU,21,6,0,0,0
TEST,6828633,12,10,3,6,10,C010001100000,C010001100000,3,3,True,5,5001,1714064370294,1714063353064,debuggVugq:debugd3ZlU,6,1,0,0,0
TEST,9947024,12,10,3,6,1,C100011000000,C001011011100,6,2,False,1,10657,1714063441469,1714063350188,debugUhpex:debugXlSya,220,90,1,1,1
TEST,9947024,12,10,3,6,1,C100011000000,C101010101010,6,2,False,2,10748,1714063453020,1714063350188,debugUhpex:debugXlSya,90,36,0,0,0
TEST,9947024,12,10,3,6,1,C100011000000,C111010000101,6,2,False,3,13083,1714063466905,1714063350188,debugUhpex:debugXlSya,36,14,0,0,0
TEST,9947024,12,10,3,6,1,C100011000000,C001001111010,6,1,False,4,10213,1714063477920,1714063350188,debugUhpex:debugXlSya,14,8,0,0,0
TEST,9947024,12,10,3,6,1,C100011000000,C010101010101,6,1,False,5,12086,1714063490807,1714063350188,debugUhpex:debugXlSya,8,8,0,0,0
TEST,9947024,12,10,3,6,1,C100011000000,C110101110000,6,2,False,6,14903,1714063506512,1714063350188,debugUhpex:debugXlSya,8,2,0,0,0
TEST,9947024,12,10,3,6,1,C100011000000,C010110001110,6,1,False,7,15044,1714063522357,1714063350188,debugUhpex:debugXlSya,2,2,0,0,0
TEST,9947024,12,10,3,6,1,C100011000000,C101011010010,6,3,False,8,9342,1714063532501,1714063350188,debugUhpex:debugXlSya,2,2,0,0,0
TEST,9947024,12,10,3,6,1,C100011000000,C101100101100,6,1,False,9,15947,1714063549250,1714063350188,debugUhpex:debugXlSya,2,2,0,0,0
TEST,9947024,12,10,3,6,1,C100011000000,C010110101100,6,1,False,10,14572,1714063564623,1714063350188,debugUhpex:debugXlSya,2,2,0,0,0
TEST,9947024,12,10,3,6,1,C100011000000,C001101010011,6,1,False,11,18367,1714063583792,1714063350188,debugUhpex:debugXlSya,2,2,0,0,0
TEST,9947024,12,10,3,6,1,C100011000000,C110010101100,6,2,False,12,15664,1714063600257,1714063350188,debugUhpex:debugXlSya,2,2,0,0,0
TEST,9947024,12,10,3,6,1,C100011000000,C101011010001,6,3,False,13,13481,1714063614539,1714063350188,debugUhpex:debugXlSya,2,2,0,0,0
TEST,9947024,12,10,3,6,1,C100011000000,C010101101100,6,1,False,14,13234,1714063628574,1714063350188,debugUhpex:debugXlSya,2,1,0,0,0
TEST,9947024,12,10,3,6,1,C100011000000,C101101010001,6,2,False,15,18028,1714063647404,1714063350188,debugUhpex:debugXlSya,1,1,0,0,0
TEST,9947024,12,10,3,6,2,C000001000110,C101100010110,6,2,False,1,16357,1714063667985,1714063350188,debugUhpex:debugXlSya,220,90,1,1,1
TEST,9947024,12,10,3,6,2,C000001000110,C011100100110,6,2,False,2,20025,1714063688811,1714063350188,debugUhpex:debugXlSya,90,40,0,0,0
TEST,9947024,12,10,3,6,2,C000001000110,C110100010110,6,2,False,3,22432,1714063712045,1714063350188,debugUhpex:debugXlSya,40,20,0,0,0
TEST,9947024,12,10,3,6,2,C000001000110,C101100100110,6,2,False,4,20901,1714063733748,1714063350188,debugUhpex:debugXlSya,20,16,0,0,0
TEST,9947024,12,10,3,6,2,C000001000110,C101100010101,6,1,False,5,15459,1714063750008,1714063350188,debugUhpex:debugXlSya,16,7,0,0,0
TEST,9947024,12,10,3,6,2,C000001000110,C101100011010,6,1,False,6,13196,1714063764005,1714063350188,debugUhpex:debugXlSya,7,2,0,0,0
TEST,9947024,12,10,3,6,2,C000001000110,C100101010110,6,3,False,7,15975,1714063780782,1714063350188,debugUhpex:debugXlSya,2,1,0,0,0
TEST,9947024,12,10,3,6,2,C000001000110,C100101010110,6,3,False,8,17009,1714063798592,1714063350188,debugUhpex:debugXlSya,1,1,1,0,1
TEST,9947024,12,10,3,6,2,C000001000110,C011010101001,6,0,False,9,23096,1714063822489,1714063350188,debugUhpex:debugXlSya,1,1,0,0,0
TEST,9947024,12,10,3,6,2,C000001000110,C100101010110,6,3,False,10,12669,1714063835960,1714063350188,debugUhpex:debugXlSya,1,1,1,0,1
TEST,9947024,12,10,3,6,2,C000001000110,C100101010110,6,3,False,11,12777,1714063849538,1714063350188,debugUhpex:debugXlSya,1,1,1,0,1
TEST,9947024,12,10,3,6,2,C000001000110,C100101010110,6,3,False,12,11401,1714063861741,1714063350188,debugUhpex:debugXlSya,1,1,1,0,1
TEST,9947024,12,10,3,6,2,C000001000110,C100101010110,6,3,False,13,11422,1714063873965,1714063350188,debugUhpex:debugXlSya,1,1,1,0,1
TEST,9947024,12,10,3,6,2,C000001000110,C100101000000,3,1,False,14,14837,1714063889603,1714063350188,debugUhpex:debugXlSya,1,1,1,0,1
