phase,pid,N_OPTIONS,total_trials,true_set_size,max_guess_size,trial_id,exp_phase,bin_stim,true_set,guess,bin_guess,success,guess_size,overlap,correct,guess_number,guess_number_p1,guess_number_p2,which_guess,RT,current_time,start_time,uniqueid,kl,opts_remaining_prev,opts_remaining_post,all_within,all_independent,all_wn_or_ind
TEST,8649068,12,10,3,6,1,forced,011000001000,C110000010000,C010110010110,001011001011,0,6,2,0,1,1,0,Hard,7050,1724957354407,1724957320345,debugnIlzk:debugA6niM,1.2895049210433136,220,90,1,1,1
TEST,8649068,12,10,3,6,1,forced,011000001000,C110000010000,C001110000000,000111000000,0,3,0,0,2,2,0,Easy,4038,1724957359247,1724957320345,debugnIlzk:debugA6niM,1.5849601288872885,90,30,0,0,0
TEST,8649068,12,10,3,6,1,forced,011000001000,C110000010000,C000000001110,000000000111,0,3,0,0,3,3,0,Easy,15307,1724957375357,1724957320345,debugnIlzk:debugA6niM,2.906882523564268,30,4,0,0,0
TEST,8649068,12,10,3,6,1,forced,011000001000,C110000010000,C010011000100,101001100010,0,5,1,0,4,4,0,Hard,18179,1724957394338,1724957320345,debugnIlzk:debugA6niM,0.9999989241064713,4,2,0,0,0
TEST,8649068,12,10,3,6,1,forced,011000001000,C110000010000,C100011001010,010001100101,0,5,1,0,5,5,0,Hard,3537,1724957398677,1724957320345,debugnIlzk:debugA6niM,0.9999987929526883,2,1,0,0,0
TEST,8649068,12,10,3,6,1,guess,011000001000,C110000010000,C010000010100,001000001010,0,3,2,0,6,6,1,NA,48974,1724957448452,1724957320345,debugnIlzk:debugA6niM,8.525006633363956e-07,1,1,1,0,1
TEST,8649068,12,10,3,6,1,guess,011000001000,C110000010000,C101100000000,010110000000,0,3,1,0,7,6,2,NA,4422,1724957453675,1724957320345,debugnIlzk:debugA6niM,2.6230799365631395e-07,1,1,0,0,0
TEST,8649068,12,10,3,6,1,guess,011000001000,C110000010000,C000000001110,000000000111,0,3,0,0,8,6,3,NA,4821,1724957459296,1724957320345,debugnIlzk:debugA6niM,6.557700440686752e-08,1,1,1,0,1
TEST,8649068,12,10,3,6,1,guess,011000001000,C110000010000,C000100010000,100010001000,0,3,1,0,9,6,4,NA,5453,1724957465550,1724957320345,debugnIlzk:debugA6niM,8.969587338684987e-15,1,1,0,0,0
TEST,8649068,12,10,3,6,1,guess,011000001000,C110000010000,C100000100010,010000010001,0,3,1,0,10,6,5,NA,7440,1724957473790,1724957320345,debugnIlzk:debugA6niM,1.2173011551834852e-14,1,1,0,0,0
TEST,8649068,12,10,3,6,1,guess,011000001000,C110000010000,C001010100000,000101010000,0,3,0,0,11,6,6,NA,15811,1724957490402,1724957320345,debugnIlzk:debugA6niM,6.086505775917023e-15,1,1,0,0,0
TEST,8649068,12,10,3,6,1,guess,011000001000,C110000010000,C000001110000,000000111000,0,3,1,0,12,6,7,NA,4375,1724957495577,1724957320345,debugnIlzk:debugA6niM,-5.206057831132282e-28,1,1,0,0,0
TEST,8649068,12,10,3,6,1,guess,011000001000,C110000010000,C110000000000,111000000000,0,3,2,0,13,6,8,NA,3487,1724957499865,1724957320345,debugnIlzk:debugA6niM,3.203424213149573e-15,1,1,0,0,0
TEST,8649068,12,10,3,6,1,guess,011000001000,C110000010000,C000001000010,100000100001,0,3,0,0,14,6,9,NA,4478,1724957505143,1724957320345,debugnIlzk:debugA6niM,-1.0412116135542673e-28,1,1,0,0,0
TEST,8649068,12,10,3,6,1,guess,011000001000,C110000010000,C000101001000,000010100100,0,3,0,1,15,6,10,NA,3530,1724957509474,1724957320345,debugnIlzk:debugA6niM,-9.465560553473257e-36,1,1,0,0,0
TEST,8649068,12,10,3,6,2,forced,001000001001,C010000010010,C001110000000,000111000000,0,3,0,0,1,1,0,Easy,4252,1724957517606,1724957320345,debugnIlzk:debugA6niM,1.38904038956492,220,84,1,1,1
TEST,8649068,12,10,3,6,2,forced,001000001001,C010000010010,C000000001110,000000000111,0,3,1,0,2,2,0,Easy,2169,1724957520576,1724957320345,debugnIlzk:debugA6niM,0.9004633231225302,84,45,0,1,1
TEST,8649068,12,10,3,6,2,forced,001000001001,C010000010010,C010001101100,001000110110,0,5,1,0,3,3,0,Hard,1909,1724957523287,1724957320345,debugnIlzk:debugA6niM,1.5849600909984216,45,15,0,0,0
TEST,8649068,12,10,3,6,2,forced,001000001001,C010000010010,C010011100010,101001110001,0,6,2,0,4,4,0,Hard,7509,1724957531598,1724957320345,debugnIlzk:debugA6niM,1.3219263466144697,15,6,0,0,0
TEST,8649068,12,10,3,6,2,forced,001000001001,C010000010010,C000011110100,100001111010,0,6,1,0,5,5,0,Hard,5577,1724957537977,1724957320345,debugnIlzk:debugA6niM,0.999998967824479,6,3,0,0,0
TEST,8649068,12,10,3,6,2,forced,001000001001,C010000010010,C010100111100,001010011110,0,6,2,0,6,6,0,Hard,8376,1724957547155,1724957320345,debugnIlzk:debugA6niM,1.5849601740624528,3,1,0,0,0
TEST,8649068,12,10,3,6,2,guess,001000001001,C010000010010,C010000000100,101000000010,0,3,1,0,7,7,1,NA,27931,1724957575890,1724957320345,debugnIlzk:debugA6niM,3.9346196955657103e-07,1,1,0,0,0
TEST,8649068,12,10,3,6,2,guess,001000001001,C010000010010,C010010000100,001001000010,0,3,1,0,8,7,2,NA,12824,1724957589516,1724957320345,debugnIlzk:debugA6niM,4.164451248027824e-14,1,1,0,0,0
TEST,8649068,12,10,3,6,2,guess,001000001001,C010000010010,C010000000110,001000000011,0,3,2,0,9,7,3,NA,2612,1724957592930,1724957320345,debugnIlzk:debugA6niM,6.557701946295996e-08,1,1,0,0,0
TEST,8649068,12,10,3,6,2,guess,001000001001,C010000010010,C010000001100,001000000110,0,3,1,0,10,7,4,NA,3499,1724957597231,1724957320345,debugnIlzk:debugA6niM,3.2034242131492585e-15,1,1,1,0,1
TEST,8649068,12,10,3,6,2,guess,001000001001,C010000010010,C010000000100,101000000010,0,3,1,0,11,7,5,NA,4129,1724957602162,1724957320345,debugnIlzk:debugA6niM,-1.0412119448488754e-28,1,1,1,0,1
TEST,8649068,12,10,3,6,2,guess,001000001001,C010000010010,C001001010000,000100101000,0,3,1,0,12,7,6,NA,2647,1724957605612,1724957320345,debugnIlzk:debugA6niM,8.969587338685509e-15,1,1,0,0,0
TEST,8649068,12,10,3,6,2,guess,001000001001,C010000010010,C000000100110,000000010011,0,3,1,0,13,7,7,NA,5578,1724957611992,1724957320345,debugnIlzk:debugA6niM,-5.206057973115681e-28,1,1,0,0,0
TEST,8649068,12,10,3,6,2,guess,001000001001,C010000010010,C110000000000,111000000000,0,3,1,0,14,7,8,NA,2498,1724957615292,1724957320345,debugnIlzk:debugA6niM,-2.0824232271085194e-28,1,1,0,0,0
TEST,8649068,12,10,3,6,2,guess,001000001001,C010000010010,C001010001000,000101000100,0,3,0,0,15,7,9,NA,4333,1724957620427,1724957320345,debugnIlzk:debugA6niM,-1.0412117082098571e-28,1,1,0,0,0
TEST,8649068,12,10,3,6,2,guess,001000001001,C010000010010,C000010011000,000001001100,0,3,1,1,16,7,10,NA,4301,1724957625530,1724957320345,debugnIlzk:debugA6niM,-2.0824232271085145e-28,1,1,0,0,0
TEST,8649068,12,10,3,6,3,forced,000110000010,C001100000100,C000000001110,000000000111,0,3,1,0,1,1,0,Easy,2855,1724957634065,1724957320345,debugnIlzk:debugA6niM,1.0264709936112513,220,108,1,1,1
TEST,8649068,12,10,3,6,3,forced,000110000010,C001100000100,C011011100100,001101110010,0,6,2,0,2,2,0,Hard,2198,1724957637065,1724957320345,debugnIlzk:debugA6niM,1.4329573970706333,108,40,0,0,0
TEST,8649068,12,10,3,6,3,forced,000110000010,C001100000100,C010010101010,001001010101,0,5,0,0,3,3,0,Hard,2939,1724957640805,1724957320345,debugnIlzk:debugA6niM,2.3219235011359167,40,8,0,0,0
TEST,8649068,12,10,3,6,3,forced,000110000010,C001100000100,C101010001010,110101000101,0,6,1,0,4,4,0,Hard,10616,1724957652224,1724957320345,debugnIlzk:debugA6niM,0.9999988667267179,8,4,0,0,0
TEST,8649068,12,10,3,6,3,forced,000110000010,C001100000100,C001100101100,000110010110,0,5,3,0,5,5,0,Hard,1883,1724957654909,1724957320345,debugnIlzk:debugA6niM,1.9999968542904916,4,1,0,0,0
TEST,8649068,12,10,3,6,3,guess,000110000010,C001100000100,C001000100100,000100010010,0,3,2,0,6,6,1,NA,32271,1724957687983,1724957320345,debugnIlzk:debugA6niM,1.3115404171130569e-07,1,1,1,0,1
TEST,8649068,12,10,3,6,3,guess,000110000010,C001100000100,C001001000100,000100100010,0,3,2,0,7,6,2,NA,14104,1724957702889,1724957320345,debugnIlzk:debugA6niM,2.1142598890520288e-14,1,1,1,0,1
TEST,8649068,12,10,3,6,3,guess,000110000010,C001100000100,C000101000100,000010100010,0,3,2,0,8,6,3,NA,8946,1724957712638,1724957320345,debugnIlzk:debugA6niM,6.557700120344347e-08,1,1,0,0,0
TEST,8649068,12,10,3,6,3,guess,000110000010,C001100000100,C001000100100,000100010010,0,3,2,0,9,6,4,NA,11661,1724957725100,1724957320345,debugnIlzk:debugA6niM,6.0865057759176475e-15,1,1,1,0,1
TEST,8649068,12,10,3,6,3,guess,000110000010,C001100000100,C100000000100,110000000010,0,3,1,0,10,6,5,NA,4892,1724957730793,1724957320345,debugnIlzk:debugA6niM,-4.1648463122336e-28,1,1,0,0,0
TEST,8649068,12,10,3,6,3,guess,000110000010,C001100000100,C000000101010,000000010101,0,3,0,0,11,6,6,NA,5098,1724957736693,1724957320345,debugnIlzk:debugA6niM,-1.0412116608820672e-28,1,1,1,0,1
TEST,8649068,12,10,3,6,3,guess,000110000010,C001100000100,C001001100000,000100110000,0,3,1,0,12,6,7,NA,3249,1724957740744,1724957320345,debugnIlzk:debugA6niM,-1.041211518898655e-28,1,1,1,0,1
TEST,8649068,12,10,3,6,3,guess,000110000010,C001100000100,C000100100010,000010010001,0,3,1,0,13,6,8,NA,3442,1724957744988,1724957320345,debugnIlzk:debugA6niM,3.203424213149677e-15,1,1,0,0,0
TEST,8649068,12,10,3,6,3,guess,000110000010,C001100000100,C010010100000,001001010000,0,3,0,0,14,6,9,NA,3102,1724957748891,1724957320345,debugnIlzk:debugA6niM,-6.453791775382614e-43,1,1,1,0,1
TEST,8649068,12,10,3,6,3,guess,000110000010,C001100000100,C000111000000,000011100000,0,3,1,1,15,6,10,NA,2242,1724957751934,1724957320345,debugnIlzk:debugA6niM,-1.0412115188986571e-28,1,1,0,0,0
TEST,8649068,12,10,3,6,4,forced,010110000000,C101100000000,C010100101110,001010010111,0,6,1,0,1,1,0,Hard,2533,1724957758766,1724957320345,debugnIlzk:debugA6niM,1.2895049210433138,220,90,1,1,1
TEST,8649068,12,10,3,6,4,forced,010110000000,C101100000000,C011000010110,101100001011,0,6,1,0,2,2,0,Hard,1626,1724957761195,1724957320345,debugnIlzk:debugA6niM,1.3219263298559303,90,36,0,0,0
TEST,8649068,12,10,3,6,4,forced,010110000000,C101100000000,C001101011000,000110101100,0,5,2,0,3,3,0,Hard,1388,1724957763386,1724957320345,debugnIlzk:debugA6niM,1.5849601522035153,36,12,0,0,0
TEST,8649068,12,10,3,6,4,forced,010110000000,C101100000000,C100010011110,010001001111,0,6,1,0,4,4,0,Hard,1209,1724957765397,1724957320345,debugnIlzk:debugA6niM,1.5849600210497683,12,4,0,0,0
TEST,8649068,12,10,3,6,4,forced,010110000000,C101100000000,C100001101100,110000110110,0,6,1,0,5,5,0,Hard,1946,1724957768145,1724957320345,debugnIlzk:debugA6niM,1.9999960181860743,4,1,0,0,0
TEST,8649068,12,10,3,6,4,guess,010110000000,C101100000000,C011100000000,001110000000,0,3,2,0,6,6,1,NA,5470,1724957774416,1724957320345,debugnIlzk:debugA6niM,1.1148085138451857e-06,1,1,0,0,0
TEST,8649068,12,10,3,6,4,guess,010110000000,C101100000000,C110000000000,111000000000,0,3,1,0,7,6,2,NA,2185,1724957777403,1724957320345,debugnIlzk:debugA6niM,6.557704348863933e-08,1,1,0,0,0
TEST,8649068,12,10,3,6,4,guess,010110000000,C101100000000,C000000011010,000000001101,0,3,0,0,8,6,3,NA,4927,1724957783132,1724957320345,debugnIlzk:debugA6niM,6.557701305611182e-08,1,1,1,0,1
TEST,8649068,12,10,3,6,4,guess,010110000000,C101100000000,C000001010100,000000101010,0,3,0,0,9,6,4,NA,1978,1724957785912,1724957320345,debugnIlzk:debugA6niM,8.969587338684572e-15,1,1,0,0,0
TEST,8649068,12,10,3,6,4,guess,010110000000,C101100000000,C010011000000,001001100000,0,3,0,0,10,6,5,NA,3557,1724957790271,1724957320345,debugnIlzk:debugA6niM,8.96958733868478e-15,1,1,0,0,0
TEST,8649068,12,10,3,6,4,guess,010110000000,C101100000000,C000100010100,000010001010,0,3,1,0,11,6,6,NA,3266,1724957794339,1724957320345,debugnIlzk:debugA6niM,-1.0412122288156619e-28,1,1,0,0,0
TEST,8649068,12,10,3,6,4,guess,010110000000,C101100000000,C011010000000,001101000000,0,3,1,0,12,6,7,NA,3587,1724957798727,1724957320345,debugnIlzk:debugA6niM,-1.0412116608820894e-28,1,1,0,0,0
TEST,8649068,12,10,3,6,4,guess,010110000000,C101100000000,C000001101000,000000110100,0,3,0,0,13,6,8,NA,3540,1724957803069,1724957320345,debugnIlzk:debugA6niM,-2.0824232271085087e-28,1,1,1,0,1
TEST,8649068,12,10,3,6,4,guess,010110000000,C101100000000,C001101000000,000110100000,0,3,2,0,14,6,9,NA,2977,1724957806848,1724957320345,debugnIlzk:debugA6niM,-1.0412116135542626e-28,1,1,1,0,1
TEST,8649068,12,10,3,6,4,guess,010110000000,C101100000000,C000001001100,000000100110,0,3,0,1,15,6,10,NA,3018,1724957810666,1724957320345,debugnIlzk:debugA6niM,-8.605054853042614e-43,1,1,1,0,1
TEST,8649068,12,10,3,6,5,forced,000000101010,C000001010100,C001110000000,000111000000,0,3,0,0,1,1,0,Easy,2386,1724957816343,1724957320345,debugnIlzk:debugA6niM,1.38904038956492,220,84,1,1,1
TEST,8649068,12,10,3,6,5,forced,000000101010,C000001010100,C001000110100,100100011010,0,5,2,0,2,2,0,Hard,2269,1724957819414,1724957320345,debugnIlzk:debugA6niM,1.4854247322406016,84,30,0,0,0
TEST,8649068,12,10,3,6,5,forced,000000101010,C000001010100,C101000010010,110100001001,0,5,1,0,3,3,0,Hard,1931,1724957822148,1724957320345,debugnIlzk:debugA6niM,1.0995343309162406,30,14,0,0,0
TEST,8649068,12,10,3,6,5,forced,000000101010,C000001010100,C000000001110,000000000111,0,3,1,0,4,4,0,Easy,2360,1724957825309,1724957320345,debugnIlzk:debugA6niM,0.9999988163729965,14,7,0,0,0
TEST,8649068,12,10,3,6,5,forced,000000101010,C000001010100,C010101010100,001010101010,0,5,3,0,5,5,0,Hard,1206,1724957827316,1724957320345,debugnIlzk:debugA6niM,1.8073523096108575,7,2,0,0,0
TEST,8649068,12,10,3,6,5,forced,000000101010,C000001010100,C000111000100,000011100010,0,4,2,0,6,6,0,Easy,3112,1724957831231,1724957320345,debugnIlzk:debugA6niM,0.9999988913180949,2,1,0,0,0
TEST,8649068,12,10,3,6,5,guess,000000101010,C000001010100,C111000000000,011100000000,0,3,0,0,7,7,1,NA,3485,1724957835518,1724957320345,debugnIlzk:debugA6niM,6.557701049337303e-08,1,1,0,0,0
TEST,8649068,12,10,3,6,5,guess,000000101010,C000001010100,C000001010010,000000101001,0,3,2,0,8,7,2,NA,3895,1724957840215,1724957320345,debugnIlzk:debugA6niM,1.311540083956983e-07,1,1,0,0,0
TEST,8649068,12,10,3,6,5,guess,000000101010,C000001010100,C001110000000,000111000000,0,3,0,0,9,7,3,NA,1818,1724957842834,1724957320345,debugnIlzk:debugA6niM,3.2034242131490514e-15,1,1,1,0,1
TEST,8649068,12,10,3,6,5,guess,000000101010,C000001010100,C000011010000,000001101000,0,3,2,0,10,7,4,NA,3037,1724957846674,1724957320345,debugnIlzk:debugA6niM,3.20342421314874e-15,1,1,0,0,0
TEST,8649068,12,10,3,6,5,guess,000000101010,C000001010100,C000001001010,000000100101,0,3,1,0,11,7,5,NA,2003,1724957849479,1724957320345,debugnIlzk:debugA6niM,-1.0412118028654671e-28,1,1,0,0,0
TEST,8649068,12,10,3,6,5,guess,000000101010,C000001010100,C001100100000,000110010000,0,3,0,0,12,7,6,NA,5689,1724957855970,1724957320345,debugnIlzk:debugA6niM,-1.0412117555376534e-28,1,1,0,0,0
TEST,8649068,12,10,3,6,5,guess,000000101010,C000001010100,C000001011000,000000101100,0,3,2,0,13,7,7,NA,2780,1724957859551,1724957320345,debugnIlzk:debugA6niM,-1.0412116135542714e-28,1,1,0,0,0
TEST,8649068,12,10,3,6,5,guess,000000101010,C000001010100,C110000000000,111000000000,0,3,0,0,14,7,8,NA,4236,1724957864590,1724957320345,debugnIlzk:debugA6niM,-1.4198339969704393e-35,1,1,0,0,0
TEST,8649068,12,10,3,6,5,guess,000000101010,C000001010100,C001000000010,100100000001,0,3,0,0,15,7,9,NA,5031,1724957870423,1724957320345,debugnIlzk:debugA6niM,-4.302528111014331e-43,1,1,1,0,1
TEST,8649068,12,10,3,6,5,guess,000000101010,C000001010100,C000010010100,000001001010,0,3,2,1,16,7,10,NA,4821,1724957876049,1724957320345,debugnIlzk:debugA6niM,-4.732780706989364e-36,1,1,0,0,0
TEST,8649068,12,10,3,6,6,forced,110010000000,C100100000000,C000101100100,100010110010,0,5,2,0,1,1,0,Hard,3916,1724957884047,1724957320345,debugnIlzk:debugA6niM,1.6520741803108074,220,70,1,1,1
TEST,8649068,12,10,3,6,6,forced,110010000000,C100100000000,C001110001010,100111000101,0,6,2,0,2,2,0,Hard,1642,1724957886490,1724957320345,debugnIlzk:debugA6niM,1.3743936321747254,70,27,0,0,0
TEST,8649068,12,10,3,6,6,forced,110010000000,C100100000000,C010101011010,001010101101,0,6,1,0,3,3,0,Hard,1176,1724957888468,1724957320345,debugnIlzk:debugA6niM,1.2954541706557516,27,11,0,0,0
TEST,8649068,12,10,3,6,6,forced,110010000000,C100100000000,C000001001110,100000100111,0,5,1,0,4,4,0,Hard,1224,1724957890493,1724957320345,debugnIlzk:debugA6niM,1.874465644764972,11,3,0,0,0
TEST,8649068,12,10,3,6,6,forced,110010000000,C100100000000,C000010000100,000001000010,0,2,0,0,5,5,0,Easy,2640,1724957893935,1724957320345,debugnIlzk:debugA6niM,1.5849595838709019,3,1,0,0,0
TEST,8649068,12,10,3,6,6,guess,110010000000,C100100000000,C000000011100,000000001110,0,3,0,0,6,6,1,NA,4488,1724957899225,1724957320345,debugnIlzk:debugA6niM,5.901925146275909e-07,1,1,0,0,0
TEST,8649068,12,10,3,6,6,guess,110010000000,C100100000000,C110100000000,011010000000,0,3,2,0,7,6,2,NA,4268,1724957904294,1724957320345,debugnIlzk:debugA6niM,9.180777097194458e-07,1,1,0,0,0
TEST,8649068,12,10,3,6,6,guess,110010000000,C100100000000,C001001010000,000100101000,0,3,0,0,8,6,3,NA,2636,1724957907731,1724957320345,debugnIlzk:debugA6niM,3.8761430917511174e-14,1,1,0,0,0
TEST,8649068,12,10,3,6,6,guess,110010000000,C100100000000,C001001000000,100100100000,0,3,1,0,9,6,4,NA,5271,1724957913803,1724957320345,debugnIlzk:debugA6niM,1.2173011551834123e-14,1,1,0,0,0
TEST,8649068,12,10,3,6,6,guess,110010000000,C100100000000,C001000100100,000100010010,0,3,0,0,10,6,5,NA,3492,1724957918096,1724957320345,debugnIlzk:debugA6niM,8.9695873386853e-15,1,1,0,0,0
TEST,8649068,12,10,3,6,6,guess,110010000000,C100100000000,C000000101010,000000010101,0,3,0,0,11,6,6,NA,2938,1724957921835,1724957320345,debugnIlzk:debugA6niM,-6.2472696339977e-28,1,1,0,0,0
TEST,8649068,12,10,3,6,6,guess,110010000000,C100100000000,C001010100000,000101010000,0,3,0,0,12,6,7,NA,4371,1724957927008,1724957320345,debugnIlzk:debugA6niM,-2.082423274436327e-28,1,1,0,0,0
TEST,8649068,12,10,3,6,6,guess,110010000000,C100100000000,C000000101100,000000010110,0,3,0,0,13,6,8,NA,2993,1724957930803,1724957320345,debugnIlzk:debugA6niM,-1.5058846921779322e-42,1,1,0,0,0
TEST,8649068,12,10,3,6,6,guess,110010000000,C100100000000,C001010100000,000101010000,0,3,0,0,14,6,9,NA,3277,1724957934882,1724957320345,debugnIlzk:debugA6niM,-9.465560123220566e-36,1,1,1,0,1
TEST,8649068,12,10,3,6,6,guess,110010000000,C100100000000,C100100010000,010010001000,0,3,2,1,15,6,10,NA,4925,1724957940608,1724957320345,debugnIlzk:debugA6niM,6.557699832036205e-08,1,1,0,0,0
TEST,8649068,12,10,3,6,7,forced,000100100100,C001001001000,C011000001110,101100000111,0,6,2,0,1,1,0,Hard,4451,1724957949272,1724957320345,debugnIlzk:debugA6niM,1.2895049210433132,220,90,1,1,1
TEST,8649068,12,10,3,6,7,forced,000100100100,C001001001000,C101011001100,010101100110,0,6,3,0,2,2,0,Hard,1399,1724957951473,1724957320345,debugnIlzk:debugA6niM,3.321917541133804,90,9,0,0,0
TEST,8649068,12,10,3,6,7,forced,000100100100,C001001001000,C010010001010,001001000101,0,4,1,0,3,3,0,Hard,2486,1724957954762,1724957320345,debugnIlzk:debugA6niM,0.8479959817204992,9,5,0,0,0
TEST,8649068,12,10,3,6,7,forced,000100100100,C001001001000,C100100001100,010010000110,0,4,1,0,4,4,0,Hard,10925,1724957966489,1724957320345,debugnIlzk:debugA6niM,1.3219262220183743,5,2,0,0,0
TEST,8649068,12,10,3,6,7,forced,000100100100,C001001001000,C110100011010,011010001101,0,6,1,0,5,5,0,Hard,1416,1724957968706,1724957320345,debugnIlzk:debugA6niM,0.9999990224718628,2,1,0,0,0
TEST,8649068,12,10,3,6,7,guess,000100100100,C001001001000,C000011100000,000001110000,0,3,1,0,6,6,1,NA,3316,1724957972824,1724957320345,debugnIlzk:debugA6niM,6.557705502096502e-08,1,1,0,0,0
TEST,8649068,12,10,3,6,7,guess,000100100100,C001001001000,C000000100110,000000010011,0,3,0,0,7,6,2,NA,3847,1724957977473,1724957320345,debugnIlzk:debugA6niM,5.246158502447381e-07,1,1,0,0,0
TEST,8649068,12,10,3,6,7,guess,000100100100,C001001001000,C110000000000,111000000000,0,3,0,0,8,6,3,NA,2943,1724957981217,1724957320345,debugnIlzk:debugA6niM,1.311540115991222e-07,1,1,0,0,0
TEST,8649068,12,10,3,6,7,guess,000100100100,C001001001000,C001100000000,100110000000,0,3,1,0,9,6,4,NA,4576,1724957986594,1724957320345,debugnIlzk:debugA6niM,1.2173011551834954e-14,1,1,0,0,0
TEST,8649068,12,10,3,6,7,guess,000100100100,C001001001000,C000001010010,000000101001,0,3,1,0,10,6,5,NA,3249,1724957990644,1724957320345,debugnIlzk:debugA6niM,6.557700440686752e-08,1,1,0,0,0
TEST,8649068,12,10,3,6,7,guess,000100100100,C001001001000,C000010110000,000001011000,0,3,0,0,11,6,6,NA,7169,1724957998614,1724957320345,debugnIlzk:debugA6niM,3.203424213148739e-15,1,1,0,0,0
TEST,8649068,12,10,3,6,7,guess,000100100100,C001001001000,C100100001000,010010000100,0,3,1,0,12,6,7,NA,3812,1724958003227,1724957320345,debugnIlzk:debugA6niM,-3.1236349826461583e-28,1,1,1,0,1
TEST,8649068,12,10,3,6,7,guess,000100100100,C001001001000,C010001000010,001000100001,0,3,1,0,13,6,8,NA,8353,1724958012382,1724957320345,debugnIlzk:debugA6niM,-1.0412118501932679e-28,1,1,0,0,0
TEST,8649068,12,10,3,6,7,guess,000100100100,C001001001000,C001100001000,000110000100,0,3,2,0,14,6,9,NA,9104,1724958022287,1724957320345,debugnIlzk:debugA6niM,3.2034242131494687e-15,1,1,0,0,0
TEST,8649068,12,10,3,6,7,guess,000100100100,C001001001000,C100001010000,010000101000,0,3,1,1,15,6,10,NA,4083,1724958027171,1724957320345,debugnIlzk:debugA6niM,-9.465560338346918e-36,1,1,0,0,0
TEST,8649068,12,10,3,6,8,forced,000100010100,C001000101000,C010010011110,001001001111,0,6,1,0,1,1,0,Hard,3502,1724958034453,1724957320345,debugnIlzk:debugA6niM,1.2895049210433134,220,90,1,1,1
TEST,8649068,12,10,3,6,8,forced,000100010100,C001000101000,C011100001100,101110000110,0,6,2,0,2,2,0,Hard,5838,1724958041093,1724957320345,debugnIlzk:debugA6niM,1.321926329855931,90,36,0,0,0
TEST,8649068,12,10,3,6,8,forced,000100010100,C001000101000,C101001001100,010100100110,0,5,2,0,3,3,0,Hard,1142,1724958043036,1724957320345,debugnIlzk:debugA6niM,1.5849601522035155,36,12,0,0,0
TEST,8649068,12,10,3,6,8,forced,000100010100,C001000101000,C000111010100,100011101010,0,6,0,0,4,4,0,Hard,1929,1724958045766,1724957320345,debugnIlzk:debugA6niM,2.584956760581279,12,2,0,0,0
TEST,8649068,12,10,3,6,8,forced,000100010100,C001000101000,C001000101110,000100010111,0,5,3,0,5,5,0,Hard,3831,1724958050398,1724957320345,debugnIlzk:debugA6niM,0.999999219202781,2,1,0,0,0
TEST,8649068,12,10,3,6,8,guess,000100010100,C001000101000,C110000000000,111000000000,0,3,0,0,6,6,1,NA,3867,1724958055067,1724957320345,debugnIlzk:debugA6niM,6.557702522912279e-08,1,1,0,0,0
TEST,8649068,12,10,3,6,8,guess,000100010100,C001000101000,C111000000000,011100000000,0,3,1,0,7,6,2,NA,2003,1724958057871,1724957320345,debugnIlzk:debugA6niM,1.505609311460343e-14,1,1,0,0,0
TEST,8649068,12,10,3,6,8,guess,000100010100,C001000101000,C011100000000,001110000000,0,3,1,0,8,6,3,NA,2077,1724958060749,1724957320345,debugnIlzk:debugA6niM,-1.2494537942817065e-27,1,1,1,0,1
TEST,8649068,12,10,3,6,8,guess,000100010100,C001000101000,C001110000000,000111000000,0,3,1,0,9,6,4,NA,2331,1724958063880,1724957320345,debugnIlzk:debugA6niM,-3.1236352192851285e-28,1,1,0,0,0
TEST,8649068,12,10,3,6,8,guess,000100010100,C001000101000,C000111000000,000011100000,0,3,0,0,10,6,5,NA,2278,1724958066960,1724957320345,debugnIlzk:debugA6niM,-8.329691725239095e-28,1,1,1,0,1
TEST,8649068,12,10,3,6,8,guess,000100010100,C001000101000,C000011100000,000001110000,0,3,1,0,11,6,6,NA,2202,1724958069964,1724957320345,debugnIlzk:debugA6niM,6.557699543728063e-08,1,1,0,0,0
TEST,8649068,12,10,3,6,8,guess,000100010100,C001000101000,C000001110000,000000111000,0,3,1,0,12,6,7,NA,2151,1724958072915,1724957320345,debugnIlzk:debugA6niM,2.883081562768186e-15,1,1,0,0,0
TEST,8649068,12,10,3,6,8,guess,000100010100,C001000101000,C000000111000,000000011100,0,3,2,0,13,6,8,NA,6726,1724958080442,1724957320345,debugnIlzk:debugA6niM,6.557699832036203e-08,1,1,0,0,0
TEST,8649068,12,10,3,6,8,guess,000100010100,C001000101000,C000000011100,000000001110,0,3,1,0,14,6,9,NA,2919,1724958084162,1724957320345,debugnIlzk:debugA6niM,-1.041211566226453e-28,1,1,1,0,1
TEST,8649068,12,10,3,6,8,guess,000100010100,C001000101000,C000000001110,000000000111,0,3,1,1,15,6,10,NA,3134,1724958088096,1724957320345,debugnIlzk:debugA6niM,-4.73278027673662e-36,1,1,1,0,1
TEST,8649068,12,10,3,6,9,forced,010001000100,C100010001000,C010110100110,001011010011,0,6,1,0,1,1,0,Hard,3593,1724958095387,1724957320345,debugnIlzk:debugA6niM,1.2895049210433138,220,90,1,1,1
TEST,8649068,12,10,3,6,9,forced,010001000100,C100010001000,C000101101010,100010110101,0,6,1,0,2,2,0,Hard,1657,1724958097845,1724957320345,debugnIlzk:debugA6niM,1.3219263298559303,90,36,0,0,0
TEST,8649068,12,10,3,6,9,forced,010001000100,C100010001000,C011001000100,101100100010,0,5,0,0,3,3,0,Hard,1420,1724958100066,1724957320345,debugnIlzk:debugA6niM,2.847989639266942,36,5,0,0,0
TEST,8649068,12,10,3,6,9,forced,010001000100,C100010001000,C110100100000,011010010000,0,4,1,0,4,4,0,Hard,3046,1724958103913,1724957320345,debugnIlzk:debugA6niM,1.321926202345299,5,2,0,0,0
TEST,8649068,12,10,3,6,9,forced,010001000100,C100010001000,C101101010010,010110101001,0,6,1,0,5,5,0,Hard,1757,1724958106473,1724957320345,debugnIlzk:debugA6niM,0.9999989896834316,2,1,0,0,0
TEST,8649068,12,10,3,6,9,guess,010001000100,C100010001000,C000000001110,000000000111,0,3,1,0,6,6,1,NA,3108,1724958110383,1724957320345,debugnIlzk:debugA6niM,3.278849297598317e-07,1,1,0,0,0
TEST,8649068,12,10,3,6,9,guess,010001000100,C100010001000,C000000011100,000000001110,0,3,1,0,7,6,2,NA,2083,1724958113267,1724957320345,debugnIlzk:debugA6niM,1.9673098313568058e-07,1,1,0,0,0
TEST,8649068,12,10,3,6,9,guess,010001000100,C100010001000,C000000111000,000000011100,0,3,1,0,8,6,3,NA,2147,1724958116215,1724957320345,debugnIlzk:debugA6niM,6.557702234604139e-08,1,1,0,0,0
TEST,8649068,12,10,3,6,9,guess,010001000100,C100010001000,C000001110000,000000111000,0,3,0,0,9,6,4,NA,4438,1724958121455,1724957320345,debugnIlzk:debugA6niM,6.557700152378611e-08,1,1,0,0,0
TEST,8649068,12,10,3,6,9,guess,010001000100,C100010001000,C000011100000,000001110000,0,3,1,0,10,6,5,NA,2391,1724958124648,1724957320345,debugnIlzk:debugA6niM,6.557700728994896e-08,1,1,0,0,0
TEST,8649068,12,10,3,6,9,guess,010001000100,C100010001000,C000111000000,000011100000,0,3,1,0,11,6,6,NA,3056,1724958128505,1724957320345,debugnIlzk:debugA6niM,6.086505775917335e-15,1,1,0,0,0
TEST,8649068,12,10,3,6,9,guess,010001000100,C100010001000,C001110000000,000111000000,0,3,1,0,12,6,7,NA,2535,1724958131841,1724957320345,debugnIlzk:debugA6niM,3.2034242131494687e-15,1,1,0,0,0
TEST,8649068,12,10,3,6,9,guess,010001000100,C100010001000,C011100000000,001110000000,0,3,0,0,13,6,8,NA,2714,1724958135356,1724957320345,debugnIlzk:debugA6niM,-4.164846312233636e-28,1,1,0,0,0
TEST,8649068,12,10,3,6,9,guess,010001000100,C100010001000,C111000000000,011100000000,0,3,1,0,14,6,9,NA,2104,1724958138260,1724957320345,debugnIlzk:debugA6niM,-3.3129460216145414e-35,1,1,0,0,0
TEST,8649068,12,10,3,6,9,guess,010001000100,C100010001000,C110000000000,111000000000,0,3,1,1,15,6,10,NA,1876,1724958140937,1724957320345,debugnIlzk:debugA6niM,-9.465560768599638e-36,1,1,0,0,0
TEST,8649068,12,10,3,6,10,forced,100000100010,C000001000100,C100101001100,110010100110,0,6,3,0,1,1,0,Hard,3305,1724958147664,1724957320345,debugnIlzk:debugA6niM,3.4594198760532424,220,20,1,1,1
TEST,8649068,12,10,3,6,10,forced,100000100010,C000001000100,C001100101110,000110010111,0,6,1,0,2,2,0,Hard,1661,1724958150125,1724957320345,debugnIlzk:debugA6niM,1.1520017238166789,20,9,0,0,0
TEST,8649068,12,10,3,6,10,forced,100000100010,C000001000100,C000111100000,000011110000,0,4,1,0,3,3,0,Easy,1817,1724958152744,1724957320345,debugnIlzk:debugA6niM,0.8479960341820365,9,5,0,0,0
TEST,8649068,12,10,3,6,10,forced,100000100010,C000001000100,C100001000110,010000100011,0,4,2,0,4,4,0,Hard,2423,1724958155969,1724957320345,debugnIlzk:debugA6niM,1.321926563018247,5,2,0,0,0
TEST,8649068,12,10,3,6,10,forced,100000100010,C000001000100,C010001000010,101000100001,0,4,2,0,5,5,0,Easy,4974,1724958161745,1724957320345,debugnIlzk:debugA6niM,0.9999990880488718,2,1,0,0,0
TEST,8649068,12,10,3,6,10,guess,100000100010,C000001000100,C010100000000,101010000000,0,3,1,0,6,6,1,NA,4362,1724958166909,1724957320345,debugnIlzk:debugA6niM,1.3115401191946485e-07,1,1,0,0,0
TEST,8649068,12,10,3,6,10,guess,100000100010,C000001000100,C101010000000,010101000000,0,3,0,0,7,6,2,NA,2448,1724958170159,1724957320345,debugnIlzk:debugA6niM,6.557702234604139e-08,1,1,0,0,0
TEST,8649068,12,10,3,6,10,guess,100000100010,C000001000100,C010101000000,001010100000,0,3,1,0,8,6,3,NA,4940,1724958175901,1724957320345,debugnIlzk:debugA6niM,6.557699832036203e-08,1,1,0,0,0
TEST,8649068,12,10,3,6,10,guess,100000100010,C000001000100,C001010100000,000101010000,0,3,0,0,9,6,4,NA,2811,1724958179513,1724957320345,debugnIlzk:debugA6niM,-6.247269539342097e-28,1,1,0,0,0
TEST,8649068,12,10,3,6,10,guess,100000100010,C000001000100,C000101010000,000010101000,0,3,1,0,10,6,5,NA,4399,1724958184714,1724957320345,debugnIlzk:debugA6niM,2.8830815627678735e-15,1,1,0,0,0
TEST,8649068,12,10,3,6,10,guess,100000100010,C000001000100,C000010101000,000001010100,0,3,0,0,11,6,6,NA,2398,1724958187914,1724957320345,debugnIlzk:debugA6niM,6.55769954372806e-08,1,1,0,0,0
TEST,8649068,12,10,3,6,10,guess,100000100010,C000001000100,C000001010100,000000101010,0,3,2,0,12,6,7,NA,2855,1724958191571,1724957320345,debugnIlzk:debugA6niM,8.969587338685613e-15,1,1,0,0,0
TEST,8649068,12,10,3,6,10,guess,100000100010,C000001000100,C000000101010,000000010101,0,3,0,0,13,6,8,NA,3496,1724958195869,1724957320345,debugnIlzk:debugA6niM,-3.1236347933349585e-28,1,1,1,0,1
TEST,8649068,12,10,3,6,10,guess,100000100010,C000001000100,C010010010000,001001001000,0,3,0,0,14,6,9,NA,2815,1724958199486,1724957320345,debugnIlzk:debugA6niM,3.203424213149677e-15,1,1,0,0,0
TEST,8649068,12,10,3,6,10,guess,100000100010,C000001000100,C001000000010,100100000001,0,3,1,1,15,6,10,NA,3768,1724958204055,1724957320345,debugnIlzk:debugA6niM,-1.0412116608820548e-28,1,1,0,0,0
TEST,192816,12,10,3,6,1,forced,100100100000,C001001000000,C001010011010,100101001101,0,6,2,0,1,1,0,Hard,22623,1724957472127,1724957331970,debugT0G7c:debugrbUQK,1.2895049210433132,220,90,1,1,1
TEST,192816,12,10,3,6,1,forced,100100100000,C001001000000,C001110000000,000111000000,0,3,1,0,2,2,0,Easy,6131,1724957479067,1724957331970,debugT0G7c:debugrbUQK,0.9682900234044577,90,46,0,0,0
TEST,192816,12,10,3,6,1,forced,100100100000,C001001000000,C000000001110,000000000111,0,3,0,0,3,3,0,Easy,8277,1724957488146,1724957331970,debugT0G7c:debugrbUQK,1.4360971046151811,46,17,0,0,0
TEST,192816,12,10,3,6,1,forced,100100100000,C001001000000,C111000000010,111100000001,0,5,2,0,4,4,0,Hard,8585,1724957497536,1724957331970,debugT0G7c:debugrbUQK,1.5024982063657406,17,6,0,0,0
TEST,192816,12,10,3,6,1,forced,100100100000,C001001000000,C101101011000,010110101100,0,6,2,0,5,5,0,Hard,22474,1724957520814,1724957331970,debugT0G7c:debugrbUQK,1.5849600319792383,6,2,0,0,0
TEST,192816,12,10,3,6,1,forced,100100100000,C001001000000,C010110001110,001011000111,0,6,0,0,6,6,0,Hard,29236,1724957550854,1724957331970,debugT0G7c:debugrbUQK,0.9999989896834904,2,1,0,0,0
TEST,192816,12,10,3,6,1,guess,100100100000,C001001000000,C001001000000,100100100000,1,3,3,1,7,7,1,NA,15043,1724957566705,1724957331970,debugT0G7c:debugrbUQK,5.246159306506523e-07,1,1,0,0,0
TEST,192816,12,10,3,6,2,forced,100000100010,C000001000100,C100101001100,110010100110,0,6,3,0,1,1,0,Hard,69825,1724957640578,1724957331970,debugT0G7c:debugrbUQK,3.4594198760532424,220,20,1,1,1
TEST,192816,12,10,3,6,2,forced,100000100010,C000001000100,C100000000000,110000000000,0,2,1,0,2,2,0,Easy,6075,1724957647458,1724957331970,debugT0G7c:debugrbUQK,0.7369650408462247,20,12,1,0,1
TEST,192816,12,10,3,6,2,forced,100000100010,C000001000100,C000000001110,000000000111,0,3,1,0,3,3,0,Easy,4970,1724957653236,1724957331970,debugT0G7c:debugrbUQK,0.5849620720693495,12,8,0,0,0
TEST,192816,12,10,3,6,2,forced,100000100010,C000001000100,C110001001010,011000100101,0,5,1,0,4,4,0,Hard,6979,1724957661024,1724957331970,debugT0G7c:debugrbUQK,1.4150354929981026,8,3,0,0,0
TEST,192816,12,10,3,6,2,forced,100000100010,C000001000100,C001101101000,100110110100,0,6,2,0,5,5,0,Hard,23501,1724957685335,1724957331970,debugT0G7c:debugrbUQK,1.584959999190821,3,1,0,0,0
TEST,192816,12,10,3,6,2,guess,100000100010,C000001000100,C000100001000,100010000100,0,3,1,0,6,6,1,NA,7997,1724957694138,1724957331970,debugT0G7c:debugrbUQK,4.5903886061678457e-07,1,1,1,0,1
TEST,192816,12,10,3,6,2,guess,100000100010,C000001000100,C100001000100,010000100010,0,3,2,0,7,6,2,NA,37009,1724957731962,1724957331970,debugT0G7c:debugrbUQK,1.3115405036054959e-07,1,1,1,0,1
TEST,192816,12,10,3,6,2,guess,100000100010,C000001000100,C000001000100,100000100010,1,3,3,1,8,6,3,NA,4603,1724957737366,1724957331970,debugT0G7c:debugrbUQK,1.9673098922218553e-07,1,1,1,0,1
TEST,192816,12,10,3,6,3,forced,011000001000,C110000010000,C010110010110,001011001011,0,6,2,0,1,1,0,Hard,5530,1724957819503,1724957331970,debugT0G7c:debugrbUQK,1.2895049210433136,220,90,1,1,1
TEST,192816,12,10,3,6,3,forced,011000001000,C110000010000,C001110000000,000111000000,0,3,0,0,2,2,0,Easy,3469,1724957823776,1724957331970,debugT0G7c:debugrbUQK,1.5849601288872885,90,30,0,0,0
TEST,192816,12,10,3,6,3,forced,011000001000,C110000010000,C100011010100,110001101010,0,6,2,0,3,3,0,Hard,4660,1724957829240,1724957331970,debugT0G7c:debugrbUQK,1.099534355897928,30,14,0,0,0
TEST,192816,12,10,3,6,3,forced,011000001000,C110000010000,C111000001100,011100000110,0,5,2,0,4,4,0,Hard,13264,1724957843310,1724957331970,debugT0G7c:debugrbUQK,1.4854247509768561,14,5,0,0,0
TEST,192816,12,10,3,6,3,forced,011000001000,C110000010000,C100010010010,110001001001,0,5,2,0,5,5,0,Hard,34269,1724957878382,1724957331970,debugT0G7c:debugrbUQK,1.3219264187490678,5,2,0,0,0
TEST,192816,12,10,3,6,3,forced,011000001000,C110000010000,C000100100010,000010010001,0,3,0,0,6,6,0,Easy,19174,1724957898363,1724957331970,debugT0G7c:debugrbUQK,0.9999986290103681,2,1,0,0,0
TEST,192816,12,10,3,6,3,guess,011000001000,C110000010000,C100000010100,010000001010,0,3,2,0,7,7,1,NA,9739,1724957908908,1724957331970,debugT0G7c:debugrbUQK,4.5903889649512234e-07,1,1,1,0,1
TEST,192816,12,10,3,6,3,guess,011000001000,C110000010000,C100001000100,010000100010,0,3,1,0,8,7,2,NA,17001,1724957926720,1724957331970,debugT0G7c:debugrbUQK,6.557700761029156e-08,1,1,1,0,1
TEST,192816,12,10,3,6,3,guess,011000001000,C110000010000,C010000010100,001000001010,0,3,2,0,9,7,3,NA,68230,1724957995752,1724957331970,debugT0G7c:debugrbUQK,6.557701049337304e-08,1,1,1,0,1
TEST,192816,12,10,3,6,3,guess,011000001000,C110000010000,C110000000100,011000000010,0,3,2,0,10,7,4,NA,41477,1724958038040,1724957331970,debugT0G7c:debugrbUQK,6.557700408652489e-08,1,1,1,0,1
TEST,192816,12,10,3,6,3,guess,011000001000,C110000010000,C010000000100,101000000010,0,3,1,0,11,7,5,NA,113382,1724958152238,1724957331970,debugT0G7c:debugrbUQK,3.2034242131491555e-15,1,1,0,0,0
TEST,192816,12,10,3,6,3,guess,011000001000,C110000010000,C010010000100,001001000010,0,3,1,0,12,7,6,NA,6315,1724958159370,1724957331970,debugT0G7c:debugrbUQK,-2.0824232744363083e-28,1,1,1,0,1
TEST,192816,12,10,3,6,3,guess,011000001000,C110000010000,C010000000110,001000000011,0,3,1,0,13,7,7,NA,4696,1724958164872,1724957331970,debugT0G7c:debugrbUQK,-1.0412116608820522e-28,1,1,1,0,1
TEST,192816,12,10,3,6,3,guess,011000001000,C110000010000,C010001000100,001000100010,0,3,1,0,14,7,8,NA,5655,1724958171331,1724957331970,debugT0G7c:debugrbUQK,-4.7327807069893745e-36,1,1,0,0,0
TEST,192816,12,10,3,6,3,guess,011000001000,C110000010000,C010000010100,001000001010,0,3,2,0,15,7,9,NA,7932,1724958180070,1724957331970,debugT0G7c:debugrbUQK,-1.4198340830209836e-35,1,1,1,0,1
TEST,192816,12,10,3,6,3,guess,011000001000,C110000010000,C010001000100,001000100010,0,3,1,1,16,7,10,NA,4573,1724958185453,1724957331970,debugT0G7c:debugrbUQK,-2.151263859937727e-43,1,1,1,0,1
TEST,192816,12,10,3,6,4,forced,000000110100,C000001101000,C000000001110,000000000111,0,3,1,0,1,1,0,Easy,5079,1724958301493,1724957331970,debugT0G7c:debugrbUQK,1.0264709936112513,220,108,1,1,1
TEST,192816,12,10,3,6,4,forced,000000110100,C000001101000,C110100011000,011010001100,0,5,1,0,2,2,0,Hard,4679,1724958306980,1724957331970,debugT0G7c:debugrbUQK,1.1110299461195434,108,50,0,0,0
TEST,192816,12,10,3,6,4,forced,000000110100,C000001101000,C001110000000,000111000000,0,3,0,0,3,3,0,Easy,3665,1724958311450,1724957331970,debugT0G7c:debugrbUQK,1.251537159327695,50,21,0,0,0
TEST,192816,12,10,3,6,4,forced,000000110100,C000001101000,C100000000000,110000000000,0,2,0,0,4,4,0,Easy,11942,1724958324194,1724957331970,debugT0G7c:debugrbUQK,1.2223907963264762,21,9,0,0,0
TEST,192816,12,10,3,6,4,forced,000000110100,C000001101000,C111001000100,111100100010,0,6,1,0,5,5,0,Hard,12252,1724958337250,1724957331970,debugT0G7c:debugrbUQK,1.1699235281539966,9,4,0,0,0
TEST,192816,12,10,3,6,4,forced,000000110100,C000001101000,C000000011100,000000001110,0,3,1,0,6,6,0,Easy,26694,1724958364750,1724957331970,debugT0G7c:debugrbUQK,0.9999987929526634,4,2,0,0,0
TEST,192816,12,10,3,6,4,forced,000000110100,C000001101000,C010100100000,001010010000,0,3,1,0,7,7,0,Easy,12231,1724958377785,1724957331970,debugT0G7c:debugrbUQK,0.9999988585295707,2,1,0,0,0
TEST,192816,12,10,3,6,4,guess,000000110100,C000001101000,C100100001000,010010000100,0,3,1,0,8,8,1,NA,12969,1724958391559,1724957331970,debugT0G7c:debugrbUQK,3.93461930474808e-07,1,1,1,0,1
TEST,192816,12,10,3,6,4,guess,000000110100,C000001101000,C110000001000,011000000100,0,3,1,0,9,8,2,NA,5280,1724958397657,1724957331970,debugT0G7c:debugrbUQK,6.557703451905239e-08,1,1,1,0,1
TEST,192816,12,10,3,6,4,guess,000000110100,C000001101000,C100000101000,010000010100,0,3,2,0,10,8,3,NA,6093,1724958404554,1724957331970,debugT0G7c:debugrbUQK,1.7618832026988223e-14,1,1,0,0,0
TEST,192816,12,10,3,6,4,guess,000000110100,C000001101000,C100000100010,010000010001,0,3,1,0,11,8,4,NA,111291,1724958516652,1724957331970,debugT0G7c:debugrbUQK,8.969587338686134e-15,1,1,0,0,0
TEST,192816,12,10,3,6,4,guess,000000110100,C000001101000,C010000100010,001000010001,0,3,1,0,12,8,5,NA,9214,1724958526671,1724957331970,debugT0G7c:debugrbUQK,-4.164846170250211e-28,1,1,0,0,0
TEST,192816,12,10,3,6,4,guess,000000110100,C000001101000,C010000110000,001000011000,0,3,1,0,13,8,6,NA,4802,1724958532289,1724957331970,debugT0G7c:debugrbUQK,-2.0824233690918775e-28,1,1,0,0,0
TEST,192816,12,10,3,6,4,guess,000000110100,C000001101000,C010000100100,001000010010,0,3,1,0,14,8,7,NA,125160,1724958658264,1724957331970,debugT0G7c:debugrbUQK,2.8830815627682892e-15,1,1,0,0,0
TEST,192816,12,10,3,6,4,guess,000000110100,C000001101000,C000000100100,100000010010,0,3,1,0,15,8,8,NA,16411,1724958675489,1724957331970,debugT0G7c:debugrbUQK,6.557699255419917e-08,1,1,0,0,0
TEST,192816,12,10,3,6,4,guess,000000110100,C000001101000,C100001001000,010000100100,0,3,2,0,16,8,9,NA,8310,1724958684617,1724957331970,debugT0G7c:debugrbUQK,6.557700152378611e-08,1,1,0,0,0
TEST,192816,12,10,3,6,4,guess,000000110100,C000001101000,C100000100100,010000010010,0,3,1,1,17,8,10,NA,4851,1724958690270,1724957331970,debugT0G7c:debugrbUQK,-6.453791677597918e-43,1,1,0,0,0
TEST,192816,12,10,3,6,5,forced,000001110000,C000011100000,C000000001110,000000000111,0,3,0,0,1,1,0,Easy,7761,1724958702534,1724957331970,debugT0G7c:debugrbUQK,1.38904038956492,220,84,1,1,1
TEST,192816,12,10,3,6,5,forced,000001110000,C000011100000,C000110101010,100011010101,0,6,2,0,2,2,0,Hard,7564,1724958710899,1724957331970,debugT0G7c:debugrbUQK,1.485424688522671,84,30,0,0,0
TEST,192816,12,10,3,6,5,forced,000001110000,C000011100000,C000001100000,000000110000,0,2,2,0,3,3,0,Easy,9467,1724958721168,1724957331970,debugT0G7c:debugrbUQK,3.321917644598966,30,3,0,0,0
TEST,192816,12,10,3,6,5,forced,000001110000,C000011100000,C110000000000,111000000000,0,3,0,0,4,4,0,Easy,12563,1724958734531,1724957331970,debugT0G7c:debugrbUQK,0.5849622742649584,3,2,0,0,0
TEST,192816,12,10,3,6,5,forced,000001110000,C000011100000,C001100010000,000110001000,0,3,0,0,5,5,0,Easy,3905,1724958739239,1724957331970,debugT0G7c:debugrbUQK,0.9999990224719517,2,1,0,0,0
TEST,192816,12,10,3,6,5,guess,000001110000,C000011100000,C000101100000,000010110000,0,3,2,0,6,6,1,NA,4071,1724958744118,1724957331970,debugT0G7c:debugrbUQK,6.55770460513781e-08,1,1,0,0,0
TEST,192816,12,10,3,6,5,guess,000001110000,C000011100000,C000011100000,000001110000,1,3,3,1,7,6,2,NA,16799,1724958761724,1724957331970,debugT0G7c:debugrbUQK,1.9673100427827656e-07,1,1,0,0,0
TEST,192816,12,10,3,6,6,forced,010001000100,C100010001000,C001110000000,000111000000,0,3,1,0,1,1,0,Easy,3061,1724958832118,1724957331970,debugT0G7c:debugrbUQK,1.026470993611252,220,108,1,1,1
TEST,192816,12,10,3,6,6,forced,010001000100,C100010001000,C000000001110,000000000111,0,3,1,0,2,2,0,Easy,2210,1724958835142,1724957331970,debugT0G7c:debugrbUQK,0.9999988281699028,108,54,0,1,1
TEST,192816,12,10,3,6,6,forced,010001000100,C100010001000,C011000000000,001100000000,0,2,0,0,3,3,0,Easy,3379,1724958839328,1724957331970,debugT0G7c:debugrbUQK,0.8479959693337422,54,30,0,0,0
TEST,192816,12,10,3,6,6,forced,010001000100,C100010001000,C100010110110,010001011011,0,6,2,0,4,4,0,Hard,4948,1724958845079,1724957331970,debugT0G7c:debugrbUQK,1.2064493366856288,30,13,0,0,0
TEST,192816,12,10,3,6,6,forced,010001000100,C100010001000,C000100000100,000010000010,0,2,0,0,5,5,0,Easy,11019,1724958856900,1724957331970,debugT0G7c:debugrbUQK,1.3785096889514312,13,5,0,0,0
TEST,192816,12,10,3,6,6,forced,010001000100,C100010001000,C100000011100,110000001110,0,5,2,0,6,6,0,Hard,5064,1724958862768,1724957331970,debugT0G7c:debugrbUQK,1.321926438422133,5,2,0,0,0
TEST,192816,12,10,3,6,6,forced,010001000100,C100010001000,C100000001000,010000000100,0,2,2,0,7,7,0,Easy,6551,1724958870131,1724957331970,debugT0G7c:debugrbUQK,0.9999991864143165,2,1,1,0,1
TEST,192816,12,10,3,6,6,guess,010001000100,C100010001000,C100000001010,010000000101,0,3,2,0,8,8,1,NA,12390,1724958883327,1724957331970,debugT0G7c:debugrbUQK,6.557702811220425e-08,1,1,0,0,0
TEST,192816,12,10,3,6,6,guess,010001000100,C100010001000,C100010001000,010001000100,1,3,3,1,9,8,2,NA,16572,1724958900707,1724957331970,debugT0G7c:debugrbUQK,6.557701337645448e-08,1,1,0,0,0
TEST,192816,12,10,3,6,7,forced,001000001001,C010000010010,C001110000000,000111000000,0,3,0,0,1,1,0,Easy,2373,1724958940272,1724957331970,debugT0G7c:debugrbUQK,1.38904038956492,220,84,1,1,1
TEST,192816,12,10,3,6,7,forced,001000001001,C010000010010,C000000001110,000000000111,0,3,1,0,2,2,0,Easy,1604,1724958942685,1724957331970,debugT0G7c:debugrbUQK,0.9004633231225302,84,45,0,1,1
TEST,192816,12,10,3,6,7,forced,001000001001,C010000010010,C000000011000,000000001100,0,2,1,0,3,3,0,Easy,3771,1724958947260,1724957331970,debugT0G7c:debugrbUQK,1.1699235314328422,45,20,0,0,0
TEST,192816,12,10,3,6,7,forced,001000001001,C010000010010,C000001100000,000000110000,0,2,0,0,4,4,0,Easy,6704,1724958954768,1724957331970,debugT0G7c:debugrbUQK,1.1520016141575073,20,9,0,1,1
TEST,192816,12,10,3,6,7,forced,001000001001,C010000010010,C000000010010,000000001001,0,2,2,0,5,5,0,Easy,2767,1724958958340,1724957331970,debugT0G7c:debugrbUQK,1.5849603780794588,9,3,0,0,0
TEST,192816,12,10,3,6,7,forced,001000001001,C010000010010,C110100000000,011010000000,0,3,1,0,6,6,0,Easy,2158,1724958961303,1724957331970,debugT0G7c:debugrbUQK,0.5849620119571562,3,2,0,0,0
TEST,192816,12,10,3,6,7,forced,001000001001,C010000010010,C011101010000,001110101000,0,5,2,0,7,7,0,Easy,6041,1724958968146,1724957331970,debugT0G7c:debugrbUQK,0.9999988913180854,2,1,0,0,0
TEST,192816,12,10,3,6,7,guess,001000001001,C010000010010,C000100010010,000010001001,0,3,2,0,8,8,1,NA,4270,1724958973221,1724957331970,debugT0G7c:debugrbUQK,1.311540058329596e-07,1,1,0,0,0
TEST,192816,12,10,3,6,7,guess,001000001001,C010000010010,C010000010010,001000001001,1,3,3,1,9,8,2,NA,5229,1724958979264,1724957331970,debugT0G7c:debugrbUQK,6.557701337645446e-08,1,1,0,0,0
TEST,192816,12,10,3,6,8,forced,000110000010,C001100000100,C000000001110,000000000111,0,3,1,0,1,1,0,Easy,2905,1724958986037,1724957331970,debugT0G7c:debugrbUQK,1.0264709936112513,220,108,1,1,1
TEST,192816,12,10,3,6,8,forced,000110000010,C001100000100,C000000011000,000000001100,0,2,0,0,2,2,0,Easy,3022,1724958989861,1724957331970,debugT0G7c:debugrbUQK,0.9475314827832628,108,56,0,0,0
TEST,192816,12,10,3,6,8,forced,000110000010,C001100000100,C001110000000,000111000000,0,3,2,0,3,3,0,Easy,1791,1724958992455,1724957331970,debugT0G7c:debugrbUQK,3.2223825749565083,56,6,0,1,1
TEST,192816,12,10,3,6,8,forced,000110000010,C001100000100,C000111100000,000011110000,0,4,1,0,4,4,0,Easy,1966,1724958995223,1724957331970,debugT0G7c:debugrbUQK,0.5849620666045807,6,4,0,0,0
TEST,192816,12,10,3,6,8,forced,000110000010,C001100000100,C000011011100,000001101110,0,5,1,0,5,5,0,Hard,4580,1724959000611,1724957331970,debugT0G7c:debugrbUQK,0.9999988257411326,4,2,0,0,0
TEST,192816,12,10,3,6,8,forced,000110000010,C001100000100,C010110000010,001011000001,0,4,1,0,6,6,0,Hard,3571,1724959004985,1724957331970,debugT0G7c:debugrbUQK,0.9999988585295899,2,1,0,0,0
TEST,192816,12,10,3,6,8,guess,000110000010,C001100000100,C001100000100,000110000010,1,3,3,1,7,7,1,NA,36997,1724959042791,1724957331970,debugT0G7c:debugrbUQK,7.213468960652597e-07,1,1,0,0,0
TEST,192816,12,10,3,6,9,forced,000010110000,C000101100000,C001110000000,000111000000,0,3,1,0,1,1,0,Easy,41660,1724959096926,1724957331970,debugT0G7c:debugrbUQK,1.026470993611252,220,108,1,1,1
TEST,192816,12,10,3,6,9,forced,000010110000,C000101100000,C000000001110,000000000111,0,3,0,0,2,2,0,Easy,2805,1724959100534,1724957331970,debugT0G7c:debugrbUQK,1.263032773043765,108,45,0,1,1
TEST,192816,12,10,3,6,9,forced,000010110000,C000101100000,C011000000000,001100000000,0,2,0,0,3,3,0,Easy,2153,1724959103496,1724957331970,debugT0G7c:debugrbUQK,1.1699235150386071,45,20,0,0,0
TEST,192816,12,10,3,6,9,forced,000010110000,C000101100000,C000001100000,000000110000,0,2,2,0,4,4,0,Easy,5004,1724959109308,1724957331970,debugT0G7c:debugrbUQK,3.321917644598967,20,2,0,1,1
TEST,192816,12,10,3,6,9,forced,000010110000,C000101100000,C001010000000,100101000000,0,3,0,0,5,5,0,Easy,3215,1724959113327,1724957331970,debugT0G7c:debugrbUQK,0.9999990880488326,2,1,0,0,0
TEST,192816,12,10,3,6,9,guess,000010110000,C000101100000,C000101100000,000010110000,1,3,3,1,6,6,1,NA,6396,1724959120530,1724957331970,debugT0G7c:debugrbUQK,5.246159995242444e-07,1,1,0,0,0
TEST,192816,12,10,3,6,10,forced,000100010100,C001000101000,C000000001110,000000000111,0,3,1,0,1,1,0,Easy,2536,1724959126334,1724957331970,debugT0G7c:debugrbUQK,1.0264709936112513,220,108,1,1,1
TEST,192816,12,10,3,6,10,forced,000100010100,C001000101000,C001110000000,000111000000,0,3,1,0,2,2,0,Easy,1641,1724959128785,1724957331970,debugT0G7c:debugrbUQK,0.9999988281699032,108,54,0,1,1
TEST,192816,12,10,3,6,10,forced,000100010100,C001000101000,C000000011000,000000001100,0,2,1,0,3,3,0,Easy,2157,1724959131754,1724957331970,debugT0G7c:debugrbUQK,1.3625682278753912,54,21,0,0,0
TEST,192816,12,10,3,6,10,forced,000100010100,C001000101000,C011000000000,001100000000,0,2,1,0,4,4,0,Easy,2933,1724959135494,1724957331970,debugT0G7c:debugrbUQK,1.3923155173405157,21,8,0,0,0
TEST,192816,12,10,3,6,10,forced,000100010100,C001000101000,C010110101000,101011010100,0,6,2,0,5,5,0,Hard,2489,1724959138795,1724957331970,debugT0G7c:debugrbUQK,1.9999963296758307,8,2,0,0,0
TEST,192816,12,10,3,6,10,forced,000100010100,C001000101000,C000000000100,100000000010,0,2,0,0,6,6,0,Easy,2244,1724959141842,1724957331970,debugT0G7c:debugrbUQK,0.9999983339143683,2,1,0,0,0
TEST,192816,12,10,3,6,10,guess,000100010100,C001000101000,C010000010010,001000001001,0,3,0,0,7,7,1,NA,168056,1724959310700,1724957331970,debugT0G7c:debugrbUQK,6.557696440497385e-07,1,1,0,0,0
TEST,192816,12,10,3,6,10,guess,000100010100,C001000101000,C010010001000,001001000100,0,3,1,0,8,7,2,NA,30483,1724959342001,1724957331970,debugT0G7c:debugrbUQK,1.967309504607599e-07,1,1,1,0,1
TEST,192816,12,10,3,6,10,guess,000100010100,C001000101000,C010100010000,001010001000,0,3,0,0,9,7,3,NA,22391,1724959365195,1724957331970,debugT0G7c:debugrbUQK,1.96730959430346e-07,1,1,0,0,0
TEST,192816,12,10,3,6,10,guess,000100010100,C001000101000,C010010001000,001001000100,0,3,1,0,10,7,4,NA,11657,1724959377656,1724957331970,debugT0G7c:debugrbUQK,9.289929989068346e-15,1,1,1,0,1
TEST,192816,12,10,3,6,10,guess,000100010100,C001000101000,C101000001000,010100000100,0,3,2,0,11,7,5,NA,218428,1724959596899,1724957331970,debugT0G7c:debugrbUQK,6.557699543728059e-08,1,1,0,0,0
TEST,192816,12,10,3,6,10,guess,000100010100,C001000101000,C001010001000,000101000100,0,3,2,0,12,7,6,NA,11247,1724959608949,1724957331970,debugT0G7c:debugrbUQK,6.086505775917752e-15,1,1,0,0,0
TEST,192816,12,10,3,6,10,guess,000100010100,C001000101000,C001000101000,000100010100,1,3,3,1,13,7,7,NA,6143,1724959615895,1724957331970,debugT0G7c:debugrbUQK,1.311539936599492e-07,1,1,0,0,0
TEST,8827893,12,10,3,6,1,forced,100100100000,C001001000000,C001010011010,100101001101,0,6,2,0,1,1,0,Hard,80883,1724957450108,1724957338940,debugQmmrq:debugs7fc3,1.2895049210433132,220,90,1,1,1
TEST,8827893,12,10,3,6,1,forced,100100100000,C001001000000,C001110000000,000111000000,0,3,1,0,2,2,0,Easy,4532,1724957455453,1724957338940,debugQmmrq:debugs7fc3,0.9682900234044577,90,46,0,0,0
TEST,8827893,12,10,3,6,1,forced,100100100000,C001001000000,C000000001110,000000000111,0,3,0,0,3,3,0,Easy,2811,1724957459069,1724957338940,debugQmmrq:debugs7fc3,1.4360971046151811,46,17,0,0,0
TEST,8827893,12,10,3,6,1,forced,100100100000,C001001000000,C111000000010,111100000001,0,5,2,0,4,4,0,Hard,3773,1724957463655,1724957338940,debugQmmrq:debugs7fc3,1.5024982063657406,17,6,0,0,0
TEST,8827893,12,10,3,6,1,forced,100100100000,C001001000000,C001000010000,000100001000,0,2,1,0,5,5,0,Easy,4553,1724957469023,1724957338940,debugQmmrq:debugs7fc3,1.5849598024602223,6,2,1,0,1
TEST,8827893,12,10,3,6,1,forced,100100100000,C001001000000,C100000111000,110000011100,0,5,1,0,6,6,0,Hard,1679,1724957471514,1724957338940,debugQmmrq:debugs7fc3,0.9999988913180309,2,1,0,0,0
TEST,8827893,12,10,3,6,1,guess,100100100000,C001001000000,C000010001000,100001000100,0,3,1,0,7,7,1,NA,14553,1724957486913,1724957338940,debugQmmrq:debugs7fc3,3.2788488459156255e-07,1,1,1,0,1
TEST,8827893,12,10,3,6,1,guess,100100100000,C001001000000,C100000101000,010000010100,0,3,0,0,8,7,2,NA,17823,1724957505551,1724957338940,debugQmmrq:debugs7fc3,1.9673097416609443e-07,1,1,1,0,1
TEST,8827893,12,10,3,6,1,guess,100100100000,C001001000000,C100010000010,010001000001,0,3,0,0,9,7,3,NA,37699,1724957544105,1724957338940,debugQmmrq:debugs7fc3,1.3115398821412916e-07,1,1,0,0,0
TEST,8827893,12,10,3,6,1,guess,100100100000,C001001000000,C001010100000,000101010000,0,3,1,0,10,7,4,NA,5607,1724957550519,1724957338940,debugQmmrq:debugs7fc3,1.185266890145451e-14,1,1,0,0,0
TEST,8827893,12,10,3,6,1,guess,100100100000,C001001000000,C000000000110,100000000011,0,3,1,0,11,7,5,NA,7528,1724957558859,1724957338940,debugQmmrq:debugs7fc3,6.557700120344348e-08,1,1,0,0,0
TEST,8827893,12,10,3,6,1,guess,100100100000,C001001000000,C100010010000,010001001000,0,3,0,0,12,7,6,NA,6540,1724957566213,1724957338940,debugQmmrq:debugs7fc3,-8.329691867222463e-28,1,1,0,0,0
TEST,8827893,12,10,3,6,1,guess,100100100000,C001001000000,C001100100000,000110010000,0,3,1,0,13,7,7,NA,7407,1724957574420,1724957338940,debugQmmrq:debugs7fc3,6.557699255419918e-08,1,1,0,0,0
TEST,8827893,12,10,3,6,1,guess,100100100000,C001001000000,C000010010010,000001001001,0,3,0,0,14,7,8,NA,6937,1724957582171,1724957338940,debugQmmrq:debugs7fc3,-1.6017131791023043e-16,1,1,1,0,1
TEST,8827893,12,10,3,6,1,guess,100100100000,C001001000000,C110100000000,011010000000,0,3,0,0,15,7,9,NA,2562,1724957585543,1724957338940,debugQmmrq:debugs7fc3,6.557699864070468e-08,1,1,0,0,0
TEST,8827893,12,10,3,6,1,guess,100100100000,C001001000000,C001000001000,100100000100,0,3,2,1,16,7,10,NA,4177,1724957590521,1724957338940,debugQmmrq:debugs7fc3,-4.732781137242143e-36,1,1,1,0,1
TEST,4087325,12,10,3,6,1,forced,000000101010,C000001010100,C001110010010,100111001001,0,6,1,0,1,1,0,Hard,11837,1724957451346,1724957379465,debugLfXYQ:debugrmbNj,1.2895049210433132,220,90,1,1,1
TEST,4087325,12,10,3,6,1,forced,000000101010,C000001010100,C001001001110,100100100111,0,6,2,0,2,2,0,Hard,7535,1724957459684,1724957379465,debugLfXYQ:debugrmbNj,1.321926329855931,90,36,0,0,0
TEST,4087325,12,10,3,6,1,forced,000000101010,C000001010100,C101000100100,110100010010,0,5,1,0,3,3,0,Hard,5212,1724957465706,1724957379465,debugLfXYQ:debugrmbNj,1.263032722525252,36,15,0,0,0
TEST,4087325,12,10,3,6,1,forced,000000101010,C000001010100,C000111110100,000011111010,0,6,3,0,4,4,0,Hard,11726,1724957478247,1724957379465,debugLfXYQ:debugrmbNj,2.321923660159601,15,3,0,0,0
TEST,4087325,12,10,3,6,1,forced,000000101010,C000001010100,C011000110010,001100011001,0,5,1,0,5,5,0,Hard,2505,1724957481562,1724957379465,debugLfXYQ:debugrmbNj,1.584960021049735,3,1,0,0,0
TEST,4087325,12,10,3,6,1,guess,000000101010,C000001010100,C000000010110,000000001011,0,3,2,0,6,6,1,NA,67678,1724957550049,1724957379465,debugLfXYQ:debugrmbNj,5.246159726154924e-07,1,1,0,0,0
TEST,4087325,12,10,3,6,1,guess,000000101010,C000001010100,C000000010100,100000001010,0,3,2,0,7,6,2,NA,20554,1724957571415,1724957379465,debugLfXYQ:debugrmbNj,4.1644512480277504e-14,1,1,0,0,0
TEST,4087325,12,10,3,6,1,guess,000000101010,C000001010100,C000001110000,000000111000,0,3,2,0,8,6,3,NA,24976,1724957597199,1724957379465,debugLfXYQ:debugrmbNj,6.557700152378611e-08,1,1,1,0,1
TEST,4087325,12,10,3,6,1,guess,000000101010,C000001010100,C000100100100,000010010010,0,3,1,0,9,6,4,NA,32372,1724957630386,1724957379465,debugLfXYQ:debugrmbNj,-4.164846643528225e-28,1,1,1,0,1
TEST,4087325,12,10,3,6,1,guess,000000101010,C000001010100,C000100100010,000010010001,0,3,0,0,10,6,5,NA,3037,1724957634226,1724957379465,debugLfXYQ:debugrmbNj,-1.0412120395044831e-28,1,1,0,0,0
TEST,4087325,12,10,3,6,1,guess,000000101010,C000001010100,C000001010100,000000101010,1,3,3,1,11,6,6,NA,34277,1724957669304,1724957379465,debugLfXYQ:debugrmbNj,3.203424213149573e-15,1,1,1,0,1
TEST,4087325,12,10,3,6,2,forced,000000100110,C000001001100,C001110000000,000111000000,0,3,0,0,1,1,0,Easy,6402,1724957679592,1724957379465,debugLfXYQ:debugrmbNj,1.38904038956492,220,84,1,1,1
TEST,4087325,12,10,3,6,2,forced,000000100110,C000001001100,C000110011100,100011001110,0,6,2,0,2,2,0,Hard,2636,1724957683042,1724957379465,debugLfXYQ:debugrmbNj,1.4854246885226705,84,30,0,0,0
TEST,4087325,12,10,3,6,2,forced,000000100110,C000001001100,C000000001110,000000000111,0,3,2,0,3,3,0,Easy,9426,1724957693273,1724957379465,debugLfXYQ:debugrmbNj,1.906887492632295,30,8,0,0,0
TEST,4087325,12,10,3,6,2,forced,000000100110,C000001001100,C000000011000,000000001100,0,2,1,0,4,4,0,Easy,6385,1724957700466,1724957379465,debugLfXYQ:debugrmbNj,0.4150371707038173,8,6,1,0,1
TEST,4087325,12,10,3,6,2,forced,000000100110,C000001001100,C000000101000,100000010100,0,3,1,0,5,5,0,Easy,3842,1724957705114,1724957379465,debugLfXYQ:debugrmbNj,0.9999987820231742,6,3,0,0,0
TEST,4087325,12,10,3,6,2,forced,000000100110,C000001001100,C010000001010,101000000101,0,4,1,0,6,6,0,Easy,3759,1724957709675,1724957379465,debugLfXYQ:debugrmbNj,0.5849621212520826,3,2,0,0,0
TEST,4087325,12,10,3,6,2,forced,000000100110,C000001001100,C001101010010,100110101001,0,6,1,0,7,7,0,Hard,2250,1724957712734,1724957379465,debugLfXYQ:debugrmbNj,0.9999989568950034,2,1,0,0,0
TEST,4087325,12,10,3,6,2,guess,000000100110,C000001001100,C000001001100,000000100110,1,3,3,1,8,8,1,NA,21215,1724957734754,1724957379465,debugLfXYQ:debugrmbNj,1.3115405036054959e-07,1,1,0,0,0
TEST,4087325,12,10,3,6,3,forced,000100100100,C001001001000,C001110000000,000111000000,0,3,1,0,1,1,0,Easy,38785,1724957776643,1724957379465,debugLfXYQ:debugrmbNj,1.026470993611252,220,108,1,1,1
TEST,4087325,12,10,3,6,3,forced,000100100100,C001001001000,C000000001110,000000000111,0,3,1,0,2,2,0,Easy,2908,1724957780361,1724957379465,debugLfXYQ:debugrmbNj,0.9999988281699028,108,54,0,1,1
TEST,4087325,12,10,3,6,3,forced,000100100100,C001001001000,C001011101000,100101110100,0,6,3,0,3,3,0,Hard,3559,1724957784726,1724957379465,debugLfXYQ:debugrmbNj,3.169915629233092,54,6,0,0,0
TEST,4087325,12,10,3,6,3,forced,000100100100,C001001001000,C000111100000,000011110000,0,4,1,0,4,4,0,Easy,4046,1724957789578,1724957379465,debugLfXYQ:debugrmbNj,0.9999987601642135,6,3,0,0,0
TEST,4087325,12,10,3,6,3,forced,000100100100,C001001001000,C011101010010,001110101001,0,6,2,0,5,5,0,Hard,10214,1724957800605,1724957379465,debugLfXYQ:debugrmbNj,1.5849601959214024,3,1,0,0,0
TEST,4087325,12,10,3,6,3,guess,000100100100,C001001001000,C000011001000,000001100100,0,3,2,0,6,6,1,NA,24805,1724957826216,1724957379465,debugLfXYQ:debugrmbNj,7.869238494241045e-07,1,1,1,0,1
TEST,4087325,12,10,3,6,3,guess,000100100100,C001001001000,C000100000010,100010000001,0,3,0,0,7,6,2,NA,27080,1724957854108,1724957379465,debugLfXYQ:debugrmbNj,6.557703419870974e-08,1,1,0,0,0
TEST,4087325,12,10,3,6,3,guess,000100100100,C001001001000,C000100001010,000010000101,0,3,1,0,8,6,3,NA,10597,1724957865514,1724957379465,debugLfXYQ:debugrmbNj,3.2034242131471716e-15,1,1,0,0,0
TEST,4087325,12,10,3,6,3,guess,000100100100,C001001001000,C000100100010,000010010001,0,3,0,0,9,6,4,NA,8002,1724957874320,1724957379465,debugLfXYQ:debugrmbNj,6.086505775917127e-15,1,1,0,0,0
TEST,4087325,12,10,3,6,3,guess,000100100100,C001001001000,C000101000010,000010100001,0,3,1,0,10,6,5,NA,2759,1724957877880,1724957379465,debugLfXYQ:debugrmbNj,1.5056093114603324e-14,1,1,1,0,1
TEST,4087325,12,10,3,6,3,guess,000100100100,C001001001000,C001000101000,000100010100,0,3,2,0,11,6,6,NA,25106,1724957903801,1724957379465,debugLfXYQ:debugrmbNj,6.086505775917023e-15,1,1,1,0,1
TEST,4087325,12,10,3,6,3,guess,000100100100,C001001001000,C001010000010,000101000001,0,3,1,0,12,6,7,NA,14501,1724957919116,1724957379465,debugLfXYQ:debugrmbNj,-3.1236347460071624e-28,1,1,0,0,0
TEST,4087325,12,10,3,6,3,guess,000100100100,C001001001000,C010100000010,001010000001,0,3,0,0,13,6,8,NA,10218,1724957930140,1724957379465,debugLfXYQ:debugrmbNj,-1.4198339969704447e-35,1,1,1,0,1
TEST,4087325,12,10,3,6,3,guess,000100100100,C001001001000,C010100000100,001010000010,0,3,0,0,14,6,9,NA,4417,1724957935368,1724957379465,debugLfXYQ:debugrmbNj,-4.732780922115771e-36,1,1,0,0,0
TEST,4087325,12,10,3,6,3,guess,000100100100,C001001001000,C010010001000,001001000100,0,3,1,1,15,6,10,NA,19683,1724957955858,1724957379465,debugLfXYQ:debugrmbNj,-2.8396679939408696e-35,1,1,0,0,0
TEST,4087325,12,10,3,6,4,forced,100000100010,C000001000100,C001110000000,000111000000,0,3,0,0,1,1,0,Easy,3435,1724957962998,1724957379465,debugLfXYQ:debugrmbNj,1.38904038956492,220,84,1,1,1
TEST,4087325,12,10,3,6,4,forced,100000100010,C000001000100,C000000001110,000000000111,0,3,1,0,2,2,0,Easy,3189,1724957967003,1724957379465,debugLfXYQ:debugrmbNj,0.9004633231225302,84,45,0,1,1
TEST,4087325,12,10,3,6,4,forced,100000100010,C000001000100,C000000011000,000000001100,0,2,0,0,3,3,0,Easy,2307,1724957970121,1724957379465,debugLfXYQ:debugrmbNj,1.1699235150386076,45,20,0,0,0
TEST,4087325,12,10,3,6,4,forced,100000100010,C000001000100,C010101101010,001010110101,0,6,1,0,4,4,0,Hard,4917,1724957975851,1724957379465,debugLfXYQ:debugrmbNj,1.514570978947983,20,7,0,0,0
TEST,4087325,12,10,3,6,4,forced,100000100010,C000001000100,C101001110100,010100111010,0,6,2,0,5,5,0,Hard,5440,1724957982106,1724957379465,debugLfXYQ:debugrmbNj,1.2223908462898423,7,3,0,0,0
TEST,4087325,12,10,3,6,4,forced,100000100010,C000001000100,C000001000000,100000100000,0,2,2,0,6,6,0,Easy,14627,1724957997547,1724957379465,debugLfXYQ:debugrmbNj,1.584960567523792,3,1,0,0,0
TEST,4087325,12,10,3,6,4,guess,100000100010,C000001000100,C000001000100,100000100010,1,3,3,1,7,7,1,NA,13327,1724958011685,1724957379465,debugLfXYQ:debugrmbNj,1.9673105168894573e-07,1,1,0,0,0
TEST,4087325,12,10,3,6,5,forced,100100100000,C001001000000,C001110000000,000111000000,0,3,1,0,1,1,0,Easy,4931,1724958019756,1724957379465,debugLfXYQ:debugrmbNj,1.026470993611252,220,108,1,1,1
TEST,4087325,12,10,3,6,5,forced,100100100000,C001001000000,C000000001110,000000000111,0,3,0,0,2,2,0,Easy,6545,1724958027112,1724957379465,debugLfXYQ:debugrmbNj,1.263032773043765,108,45,0,1,1
TEST,4087325,12,10,3,6,5,forced,100100100000,C001001000000,C111000010000,011100001000,0,4,1,0,3,3,0,Hard,3534,1724958031494,1724957379465,debugLfXYQ:debugrmbNj,1.0995343271689864,45,21,0,0,0
TEST,4087325,12,10,3,6,5,forced,100100100000,C001001000000,C100100011000,110010001100,0,5,1,0,4,4,0,Hard,8293,1724958040591,1724957379465,debugLfXYQ:debugrmbNj,1.222390835880808,21,9,0,0,0
TEST,4087325,12,10,3,6,5,forced,100100100000,C001001000000,C100010111100,010001011110,0,6,0,0,5,5,0,Hard,14441,1724958055837,1724957379465,debugLfXYQ:debugrmbNj,2.169921029976635,9,2,0,0,0
TEST,4087325,12,10,3,6,5,forced,100100100000,C001001000000,C100100000010,010010000001,0,3,0,0,6,6,0,Easy,8928,1724958065572,1724957379465,debugLfXYQ:debugrmbNj,0.999998858529602,2,1,0,0,0
TEST,4087325,12,10,3,6,5,guess,100100100000,C001001000000,C001001001000,000100100100,0,3,2,0,7,7,1,NA,24853,1724958091327,1724957379465,debugLfXYQ:debugrmbNj,4.590389679314557e-07,1,1,0,0,0
TEST,4087325,12,10,3,6,5,guess,100100100000,C001001000000,C001000001000,100100000100,0,3,2,0,8,7,2,NA,30351,1724958122480,1724957379465,debugLfXYQ:debugrmbNj,2.6908762016055422e-14,1,1,0,0,0
TEST,4087325,12,10,3,6,5,guess,100100100000,C001001000000,C001001000000,100100100000,1,3,3,1,9,7,3,NA,39284,1724958162575,1724957379465,debugLfXYQ:debugrmbNj,1.2173011551834019e-14,1,1,0,0,0
TEST,4087325,12,10,3,6,6,forced,011000000001,C110000000010,C001110000000,000111000000,0,3,0,0,1,1,0,Easy,3786,1724958169647,1724957379465,debugLfXYQ:debugrmbNj,1.38904038956492,220,84,1,1,1
TEST,4087325,12,10,3,6,6,forced,011000000001,C110000000010,C000000001110,000000000111,0,3,1,0,2,2,0,Easy,1961,1724958172422,1724957379465,debugLfXYQ:debugrmbNj,0.9004633231225302,84,45,0,1,1
TEST,4087325,12,10,3,6,6,forced,011000000001,C110000000010,C000011011000,100001101100,0,5,0,0,3,3,0,Hard,3143,1724958176373,1724957379465,debugLfXYQ:debugrmbNj,2.906882914838164,45,6,0,0,0
TEST,4087325,12,10,3,6,6,forced,011000000001,C110000000010,C000001110000,000000111000,0,3,0,0,4,4,0,Easy,3405,1724958180588,1724957379465,debugLfXYQ:debugrmbNj,1.5849601522035015,6,2,0,0,0
TEST,4087325,12,10,3,6,6,forced,011000000001,C110000000010,C000101110100,000010111010,0,5,0,0,5,5,0,Hard,8420,1724958189820,1724957379465,debugLfXYQ:debugrmbNj,0.9999991208373163,2,1,0,0,0
TEST,4087325,12,10,3,6,6,guess,011000000001,C110000000010,C110000000010,011000000001,1,3,3,1,6,6,1,NA,6115,1724958196738,1724957379465,debugLfXYQ:debugrmbNj,5.246159780613105e-07,1,1,0,0,0
TEST,4087325,12,10,3,6,7,forced,000001110000,C000011100000,C000000001110,000000000111,0,3,0,0,1,1,0,Easy,2879,1724958202685,1724957379465,debugLfXYQ:debugrmbNj,1.38904038956492,220,84,1,1,1
TEST,4087325,12,10,3,6,7,forced,000001110000,C000011100000,C001110000000,000111000000,0,3,1,0,2,2,0,Easy,2308,1724958205803,1724957379465,debugLfXYQ:debugrmbNj,0.9004633231225307,84,45,0,1,1
TEST,4087325,12,10,3,6,7,forced,000001110000,C000011100000,C010011101010,001001110101,0,6,3,0,3,3,0,Hard,5907,1724958212524,1724957379465,debugLfXYQ:debugrmbNj,3.906874129763243,45,3,0,0,0
TEST,4087325,12,10,3,6,7,forced,000001110000,C000011100000,C110000000000,111000000000,0,3,0,0,4,4,0,Easy,3371,1724958216708,1724957379465,debugLfXYQ:debugrmbNj,1.5849603926519162,3,1,0,0,0
TEST,4087325,12,10,3,6,7,guess,000001110000,C000011100000,C000010001010,000001000101,0,3,1,0,5,5,1,NA,7925,1724958225437,1724957379465,debugLfXYQ:debugrmbNj,7.213467881099229e-07,1,1,1,0,1
TEST,4087325,12,10,3,6,7,guess,000001110000,C000011100000,C000011100000,000001110000,1,3,3,1,6,5,2,NA,1997,1724958228243,1724957379465,debugLfXYQ:debugrmbNj,2.6230810994058567e-07,1,1,1,0,1
TEST,4087325,12,10,3,6,8,forced,000100100010,C001001000100,C000000001110,000000000111,0,3,1,0,1,1,0,Easy,2913,1724958235360,1724957379465,debugLfXYQ:debugrmbNj,1.0264709936112513,220,108,1,1,1
TEST,4087325,12,10,3,6,8,forced,000100100010,C001001000100,C101110001100,010111000110,0,6,2,0,2,2,0,Hard,2029,1724958238196,1724957379465,debugLfXYQ:debugrmbNj,1.2313239686896842,108,46,0,0,0
TEST,4087325,12,10,3,6,8,forced,000100100010,C001001000100,C001101100100,000110110010,0,5,3,0,3,3,0,Hard,3302,1724958242304,1724957379465,debugLfXYQ:debugrmbNj,3.523549711878506,46,4,0,0,0
TEST,4087325,12,10,3,6,8,forced,000100100010,C001001000100,C000111100000,000011110000,0,4,1,0,4,4,0,Easy,4480,1724958247600,1724957379465,debugLfXYQ:debugrmbNj,0.999998825741123,4,2,0,0,0
TEST,4087325,12,10,3,6,8,forced,000100100010,C001001000100,C110101000000,011010100000,0,4,1,0,5,5,0,Hard,10365,1724958258767,1724957379465,debugLfXYQ:debugrmbNj,0.9999987929526748,2,1,0,0,0
TEST,4087325,12,10,3,6,8,guess,000100100010,C001001000100,C000100100100,000010010010,0,3,1,0,6,6,1,NA,14894,1724958274473,1724957379465,debugLfXYQ:debugrmbNj,5.901927949270799e-07,1,1,1,0,1
TEST,4087325,12,10,3,6,8,guess,000100100010,C001001000100,C000001100100,000000110010,0,3,2,0,7,6,2,NA,5425,1724958280705,1724957379465,debugLfXYQ:debugrmbNj,3.278850245811612e-07,1,1,1,0,1
TEST,4087325,12,10,3,6,8,guess,000100100010,C001001000100,C001100000100,000110000010,0,3,2,0,8,6,3,NA,27373,1724958308978,1724957379465,debugLfXYQ:debugrmbNj,3.011218622920483e-14,1,1,1,0,1
TEST,4087325,12,10,3,6,8,guess,000100100010,C001001000100,C001001000100,000100100010,1,3,3,1,9,6,4,NA,8141,1724958317926,1724957379465,debugLfXYQ:debugrmbNj,8.96958733868426e-15,1,1,1,0,1
TEST,4087325,12,10,3,6,9,forced,000110000010,C001100000100,C000000001110,000000000111,0,3,1,0,1,1,0,Easy,59224,1724958380492,1724957379465,debugLfXYQ:debugrmbNj,1.0264709936112513,220,108,1,1,1
TEST,4087325,12,10,3,6,9,forced,000110000010,C001100000100,C000000011000,000000001100,0,2,0,0,2,2,0,Easy,3567,1724958384863,1724957379465,debugLfXYQ:debugrmbNj,0.9475314827832628,108,56,0,0,0
TEST,4087325,12,10,3,6,9,forced,000110000010,C001100000100,C111000100100,011100010010,0,5,2,0,3,3,0,Hard,3398,1724958389078,1724957379465,debugLfXYQ:debugrmbNj,1.347921511225316,56,22,0,0,0
TEST,4087325,12,10,3,6,9,forced,000110000010,C001100000100,C001110000000,000111000000,0,3,2,0,4,4,0,Easy,4321,1724958394208,1724957379465,debugLfXYQ:debugrmbNj,3.45941976278482,22,2,0,0,0
TEST,4087325,12,10,3,6,9,forced,000110000010,C001100000100,C000011000010,000001100001,0,3,0,0,5,5,0,Easy,10664,1724958405682,1724957379465,debugLfXYQ:debugrmbNj,0.9999991536256859,2,1,0,0,0
TEST,4087325,12,10,3,6,9,guess,000110000010,C001100000100,C001100000100,000110000010,1,3,3,1,6,6,1,NA,12692,1724958419183,1724957379465,debugLfXYQ:debugrmbNj,7.213469290605111e-07,1,1,0,0,0
TEST,4087325,12,10,3,6,10,forced,001000001001,C010000010010,C011001100110,001100110011,0,6,2,0,1,1,0,Hard,3043,1724958425399,1724957379465,debugLfXYQ:debugrmbNj,1.2895049210433136,220,90,1,1,1
TEST,4087325,12,10,3,6,10,forced,001000001001,C010000010010,C000000001110,000000000111,0,3,1,0,2,2,0,Easy,1623,1724958427830,1724957379465,debugLfXYQ:debugrmbNj,0.9682900234044575,90,46,0,0,0
TEST,4087325,12,10,3,6,10,forced,001000001001,C010000010010,C001110000000,000111000000,0,3,0,0,3,3,0,Easy,3471,1724958432104,1724957379465,debugLfXYQ:debugrmbNj,1.1312431521865203,46,21,0,0,0
TEST,4087325,12,10,3,6,10,forced,001000001001,C010000010010,C110000010010,011000001001,0,4,3,0,4,4,0,Hard,11923,1724958444832,1724957379465,debugLfXYQ:debugrmbNj,3.39230644687833,21,2,0,0,0
TEST,4087325,12,10,3,6,10,forced,001000001001,C010000010010,C100011100110,010001110011,0,6,1,0,5,5,0,Hard,4553,1724958450194,1724957379465,debugLfXYQ:debugrmbNj,0.9999991536257571,2,1,0,0,0
TEST,4087325,12,10,3,6,10,guess,001000001001,C010000010010,C100000010010,010000001001,0,3,2,0,6,6,1,NA,19293,1724958470293,1724957379465,debugLfXYQ:debugrmbNj,3.2788503098800827e-07,1,1,1,0,1
TEST,4087325,12,10,3,6,10,guess,001000001001,C010000010010,C010000010010,001000001001,1,3,3,1,7,6,2,NA,5316,1724958476421,1724957379465,debugLfXYQ:debugrmbNj,6.557703419870977e-08,1,1,1,0,1
TEST,4419255,12,10,3,6,1,forced,000000100110,C000001001100,C100110100010,110011010001,0,6,0,0,1,1,0,Hard,11807,1724957442470,1724957384798,debugDAsAV:debugGawsa,3.459419876053242,220,20,1,1,1
TEST,4419255,12,10,3,6,1,forced,000000100110,C000001001100,C010111000110,001011100011,0,6,2,0,2,2,0,Hard,5134,1724957448406,1724957384798,debugDAsAV:debugGawsa,1.152001723816679,20,9,0,0,0
TEST,4419255,12,10,3,6,1,forced,000000100110,C000001001100,C100001101000,110000110100,0,5,2,0,3,3,0,Hard,12690,1724957461898,1724957384798,debugDAsAV:debugGawsa,2.1699209061092977,9,2,0,0,0
TEST,4419255,12,10,3,6,1,forced,000000100110,C000001001100,C000010101100,100001010110,0,5,2,0,4,4,0,Hard,6179,1724957468879,1724957384798,debugDAsAV:debugGawsa,0.9999993175680367,2,1,0,0,0
TEST,4419255,12,10,3,6,1,guess,000000100110,C000001001100,C010010000100,001001000010,0,3,1,0,5,5,1,NA,13819,1724957483500,1724957384798,debugDAsAV:debugGawsa,6.55770729601389e-08,1,1,1,0,1
TEST,4419255,12,10,3,6,1,guess,000000100110,C000001001100,C000010100100,000001010010,0,3,1,0,6,5,2,NA,42079,1724957526381,1724957384798,debugDAsAV:debugGawsa,1.9673098345602317e-07,1,1,1,0,1
TEST,4419255,12,10,3,6,1,guess,000000100110,C000001001100,C000010000100,100001000010,0,3,1,0,7,5,3,NA,13754,1724957540938,1724957384798,debugDAsAV:debugGawsa,1.3115400839569828e-07,1,1,1,0,1
TEST,4419255,12,10,3,6,1,guess,000000100110,C000001001100,C100010100000,010001010000,0,3,0,0,8,5,4,NA,5654,1724957547395,1724957384798,debugDAsAV:debugGawsa,6.55770252291228e-08,1,1,1,0,1
TEST,4419255,12,10,3,6,1,guess,000000100110,C000001001100,C010001000100,001000100010,0,3,2,0,9,5,5,NA,4021,1724957552218,1724957384798,debugDAsAV:debugGawsa,1.505609311460218e-14,1,1,1,0,1
TEST,4419255,12,10,3,6,1,guess,000000100110,C000001001100,C000010100000,100001010000,0,3,0,0,10,5,6,NA,9602,1724957562623,1724957384798,debugDAsAV:debugGawsa,3.2034242131493626e-15,1,1,1,0,1
TEST,4419255,12,10,3,6,1,guess,000000100110,C000001001100,C001010100000,000101010000,0,3,0,0,11,5,7,NA,9880,1724957573305,1724957384798,debugDAsAV:debugGawsa,3.2034242131494675e-15,1,1,0,0,0
TEST,4419255,12,10,3,6,1,guess,000000100110,C000001001100,C000100001010,000010000101,0,3,1,0,12,5,8,NA,11294,1724957585401,1724957384798,debugDAsAV:debugGawsa,2.883081562767561e-15,1,1,0,0,0
TEST,4419255,12,10,3,6,1,guess,000000100110,C000001001100,C000111000000,000011100000,0,3,1,0,13,5,9,NA,31347,1724957617550,1724957384798,debugDAsAV:debugGawsa,3.203424213149573e-15,1,1,1,0,1
TEST,4419255,12,10,3,6,1,guess,000000100110,C000001001100,C010001001000,001000100100,0,3,2,1,14,5,10,NA,4053,1724957622405,1724957384798,debugDAsAV:debugGawsa,-2.082423369091912e-28,1,1,0,0,0
TEST,4419255,12,10,3,6,2,forced,000010110000,C000101100000,C000101100110,100010110011,0,6,3,0,1,1,0,Hard,4427,1724957630560,1724957384798,debugDAsAV:debugGawsa,3.4594198760532433,220,20,1,1,1
TEST,4419255,12,10,3,6,2,forced,000010110000,C000101100000,C100001100000,110000110000,0,4,2,0,2,2,0,Hard,8560,1724957639922,1724957384798,debugDAsAV:debugGawsa,1.1520020298422664,20,9,0,0,0
TEST,4419255,12,10,3,6,2,forced,000010110000,C000101100000,C000111100000,000011110000,0,4,3,0,3,3,0,Easy,9030,1724957649754,1724957384798,debugDAsAV:debugGawsa,3.1699159061119477,9,1,0,0,0
TEST,4419255,12,10,3,6,2,guess,000010110000,C000101100000,C000101100000,000010110000,1,3,3,1,4,4,1,NA,2789,1724957653345,1724957384798,debugDAsAV:debugGawsa,5.901930034698995e-07,1,1,1,0,1
TEST,4419255,12,10,3,6,3,forced,010001000100,C100010001000,C010110100110,001011010011,0,6,1,0,1,1,0,Hard,2097,1724957658888,1724957384798,debugDAsAV:debugGawsa,1.2895049210433138,220,90,1,1,1
TEST,4419255,12,10,3,6,3,forced,010001000100,C100010001000,C000000001110,000000000111,0,3,1,0,2,2,0,Easy,4191,1724957663881,1724957384798,debugDAsAV:debugGawsa,1.16992351686019,90,40,0,0,0
TEST,4419255,12,10,3,6,3,forced,010001000100,C100010001000,C100001010110,010000101011,0,5,1,0,3,3,0,Hard,5193,1724957669877,1724957384798,debugDAsAV:debugGawsa,1.5145708951032506,40,14,0,0,0
TEST,4419255,12,10,3,6,3,forced,010001000100,C100010001000,C000100111000,000010011100,0,4,1,0,4,4,0,Hard,5154,1724957675833,1724957384798,debugDAsAV:debugGawsa,1.8073516116858261,14,4,0,0,0
TEST,4419255,12,10,3,6,3,forced,010001000100,C100010001000,C010001000000,001000100000,0,2,0,0,5,5,0,Easy,5526,1724957682161,1724957384798,debugDAsAV:debugGawsa,1.9999948705930901,4,1,0,0,0
TEST,4419255,12,10,3,6,3,guess,010001000100,C100010001000,C000100010010,000010001001,0,3,0,0,6,6,1,NA,16990,1724957699953,1724957384798,debugDAsAV:debugGawsa,1.7049997795685073e-06,1,1,0,0,0
TEST,4419255,12,10,3,6,3,guess,010001000100,C100010001000,C000100100100,000010010010,0,3,0,0,7,6,2,NA,34979,1724957735735,1724957384798,debugDAsAV:debugGawsa,5.901927590487452e-07,1,1,1,0,1
TEST,4419255,12,10,3,6,3,guess,010001000100,C100010001000,C100010001000,010001000100,1,3,3,1,8,6,3,NA,21077,1724957757614,1724957384798,debugDAsAV:debugGawsa,4.5903897978412097e-07,1,1,0,0,0
TEST,4419255,12,10,3,6,4,forced,000000101010,C000001010100,C001110010010,100111001001,0,6,1,0,1,1,0,Hard,2309,1724957763239,1724957384798,debugDAsAV:debugGawsa,1.2895049210433132,220,90,1,1,1
TEST,4419255,12,10,3,6,4,forced,000000101010,C000001010100,C001001001110,100100100111,0,6,2,0,2,2,0,Hard,7063,1724957771104,1724957384798,debugDAsAV:debugGawsa,1.321926329855931,90,36,0,0,0
TEST,4419255,12,10,3,6,4,forced,000000101010,C000001010100,C101000100100,110100010010,0,5,1,0,3,3,0,Hard,6422,1724957778328,1724957384798,debugDAsAV:debugGawsa,1.263032722525252,36,15,0,0,0
TEST,4419255,12,10,3,6,4,forced,000000101010,C000001010100,C000111110100,000011111010,0,6,3,0,4,4,0,Hard,7346,1724957786476,1724957384798,debugDAsAV:debugGawsa,2.321923660159601,15,3,0,0,0
TEST,4419255,12,10,3,6,4,forced,000000101010,C000001010100,C001000010000,100100001000,0,3,1,0,5,5,0,Easy,13049,1724957800326,1724957384798,debugDAsAV:debugGawsa,1.5849600866265938,3,1,1,0,1
TEST,4419255,12,10,3,6,4,guess,000000101010,C000001010100,C000101000100,000010100010,0,3,2,0,6,6,1,NA,19419,1724957820548,1724957384798,debugDAsAV:debugGawsa,4.5903902463204335e-07,1,1,1,0,1
TEST,4419255,12,10,3,6,4,guess,000000101010,C000001010100,C000010010100,000001001010,0,3,2,0,7,6,2,NA,68042,1724957889392,1724957384798,debugDAsAV:debugGawsa,2.979184357882137e-14,1,1,1,0,1
TEST,4419255,12,10,3,6,4,guess,000000101010,C000001010100,C000101001000,000010100100,0,3,1,0,8,6,3,NA,59956,1724957950149,1724957384798,debugDAsAV:debugGawsa,-9.370904616643825e-28,1,1,0,0,0
TEST,4419255,12,10,3,6,4,guess,000000101010,C000001010100,C000001010100,000000101010,1,3,3,1,9,6,4,NA,9999,1724957960951,1724957384798,debugDAsAV:debugGawsa,6.55770015237861e-08,1,1,1,0,1
TEST,4419255,12,10,3,6,5,forced,000000110100,C000001101000,C010011100110,001001110011,0,6,2,0,1,1,0,Hard,3538,1724957971121,1724957384798,debugDAsAV:debugGawsa,1.2895049210433136,220,90,1,1,1
TEST,4419255,12,10,3,6,5,forced,000000110100,C000001101000,C011000110010,101100011001,0,6,1,0,2,2,0,Hard,5752,1724957977675,1724957384798,debugDAsAV:debugGawsa,1.3219263298559316,90,36,0,0,0
TEST,4419255,12,10,3,6,5,forced,000000110100,C000001101000,C110010001010,011001000101,0,5,1,0,3,3,0,Hard,5478,1724957983954,1724957384798,debugDAsAV:debugGawsa,1.2630327225252516,36,15,0,0,0
TEST,4419255,12,10,3,6,5,forced,000000110100,C000001101000,C001110000000,000111000000,0,3,0,0,4,4,0,Easy,7582,1724957992337,1724957384798,debugDAsAV:debugGawsa,1.9068871368779599,15,4,0,0,0
TEST,4419255,12,10,3,6,5,forced,000000110100,C000001101000,C100001110010,110000111001,0,6,2,0,5,5,0,Hard,8458,1724958001598,1724957384798,debugDAsAV:debugGawsa,0.9999989077122738,4,2,0,0,0
TEST,4419255,12,10,3,6,5,forced,000000110100,C000001101000,C110000001110,011000000111,0,5,1,0,6,6,0,Easy,9063,1724958011463,1724957384798,debugDAsAV:debugGawsa,0.9999988913180454,2,1,0,0,0
TEST,4419255,12,10,3,6,5,guess,000000110100,C000001101000,C000000100100,100000010010,0,3,1,0,7,7,1,NA,78967,1724958091231,1724957384798,debugDAsAV:debugGawsa,3.9346189235407275e-07,1,1,0,0,0
TEST,4419255,12,10,3,6,5,guess,000000110100,C000001101000,C100000100100,010000010010,0,3,1,0,8,7,2,NA,4450,1724958096483,1724957384798,debugDAsAV:debugGawsa,1.9673099819177163e-07,1,1,0,0,0
TEST,4419255,12,10,3,6,5,guess,000000110100,C000001101000,C010000100100,001000010010,0,3,1,0,9,7,3,NA,2692,1724958099977,1724957384798,debugDAsAV:debugGawsa,6.557700728994895e-08,1,1,1,0,1
TEST,4419255,12,10,3,6,5,guess,000000110100,C000001101000,C010000100000,101000010000,0,3,1,0,10,7,4,NA,15558,1724958116337,1724957384798,debugDAsAV:debugGawsa,6.557701337645445e-08,1,1,1,0,1
TEST,4419255,12,10,3,6,5,guess,000000110100,C000001101000,C010000100100,001000010010,0,3,1,0,11,7,5,NA,23123,1724958140263,1724957384798,debugDAsAV:debugGawsa,-4.164846738183758e-28,1,1,1,0,1
TEST,4419255,12,10,3,6,5,guess,000000110100,C000001101000,C110000000100,011000000010,0,3,0,0,12,7,6,NA,5073,1724958146138,1724957384798,debugDAsAV:debugGawsa,8.969587338684886e-15,1,1,1,0,1
TEST,4419255,12,10,3,6,5,guess,000000110100,C000001101000,C110000010000,011000001000,0,3,0,0,13,7,7,NA,2483,1724958149423,1724957384798,debugDAsAV:debugGawsa,5.766163125536052e-15,1,1,0,0,0
TEST,4419255,12,10,3,6,5,guess,000000110100,C000001101000,C010000010000,101000001000,0,3,0,0,14,7,8,NA,2686,1724958152912,1724957384798,debugDAsAV:debugGawsa,-3.1236348879905496e-28,1,1,1,0,1
TEST,4419255,12,10,3,6,5,guess,000000110100,C000001101000,C110001000000,011000100000,0,3,1,0,15,7,9,NA,4248,1724958157961,1724957384798,debugDAsAV:debugGawsa,6.086505775917439e-15,1,1,0,0,0
TEST,4419255,12,10,3,6,5,guess,000000110100,C000001101000,C010000101000,001000010100,0,3,2,1,16,7,10,NA,2936,1724958161698,1724957384798,debugDAsAV:debugGawsa,-5.20605778380447e-28,1,1,0,0,0
TEST,4419255,12,10,3,6,6,forced,000100100010,C001001000100,C000000001110,000000000111,0,3,1,0,1,1,0,Easy,2111,1724958167547,1724957384798,debugDAsAV:debugGawsa,1.0264709936112513,220,108,1,1,1
TEST,4419255,12,10,3,6,6,forced,000100100010,C001001000100,C001110000000,000111000000,0,3,1,0,2,2,0,Easy,2453,1724958170802,1724957384798,debugDAsAV:debugGawsa,0.9999988281699032,108,54,0,1,1
TEST,4419255,12,10,3,6,6,forced,000100100010,C001001000100,C011000000000,001100000000,0,2,1,0,3,3,0,Easy,4886,1724958176490,1724957384798,debugDAsAV:debugGawsa,1.3625682278753914,54,21,0,0,0
TEST,4419255,12,10,3,6,6,forced,000100100010,C001001000100,C101000010100,110100001010,0,5,2,0,4,4,0,Hard,4068,1724958181361,1724957384798,debugDAsAV:debugGawsa,1.3923155911145317,21,8,0,0,0
TEST,4419255,12,10,3,6,6,forced,000100100010,C001001000100,C000000011000,100000001100,0,3,0,0,5,5,0,Hard,7701,1724958189864,1724957384798,debugDAsAV:debugGawsa,1.4150354629420367,8,3,0,0,0
TEST,4419255,12,10,3,6,6,forced,000100100010,C001001000100,C100011010010,110001101001,0,6,1,0,6,6,0,Hard,4960,1724958195626,1724957384798,debugDAsAV:debugGawsa,1.5849598243191816,3,1,0,0,0
TEST,4419255,12,10,3,6,6,guess,000100100010,C001001000100,C010000000100,101000000010,0,3,1,0,7,7,1,NA,196179,1724958392607,1724957384798,debugDAsAV:debugGawsa,4.5903880615859244e-07,1,1,0,0,0
TEST,4419255,12,10,3,6,6,guess,000100100010,C001001000100,C011000000100,001100000010,0,3,2,0,8,7,2,NA,205854,1724958599263,1724957384798,debugDAsAV:debugGawsa,1.967309953086905e-07,1,1,0,0,0
TEST,4419255,12,10,3,6,6,guess,000100100010,C001001000100,C010100000010,001010000001,0,3,0,0,9,7,3,NA,11982,1724958612048,1724957384798,debugDAsAV:debugGawsa,6.557700761029158e-08,1,1,0,0,0
TEST,4419255,12,10,3,6,6,guess,000100100010,C001001000100,C011000000010,001100000001,0,3,1,0,10,7,4,NA,2744,1724958615594,1724957384798,debugDAsAV:debugGawsa,2.883081562767769e-15,1,1,0,0,0
TEST,4419255,12,10,3,6,6,guess,000100100010,C001001000100,C001100000010,000110000001,0,3,1,0,11,7,5,NA,3705,1724958620102,1724957384798,debugDAsAV:debugGawsa,-4.1648459809390445e-28,1,1,0,0,0
TEST,4419255,12,10,3,6,6,guess,000100100010,C001001000100,C001100000100,000110000010,0,3,2,0,12,7,6,NA,2182,1724958623087,1724957384798,debugDAsAV:debugGawsa,3.203424213149572e-15,1,1,0,0,0
TEST,4419255,12,10,3,6,6,guess,000100100010,C001001000100,C010100000010,001010000001,0,3,0,0,13,7,7,NA,2687,1724958626576,1724957384798,debugDAsAV:debugGawsa,-1.4198339324325428e-35,1,1,1,0,1
TEST,4419255,12,10,3,6,6,guess,000100100010,C001001000100,C010100000100,001010000010,0,3,1,0,14,7,8,NA,2225,1724958629602,1724957384798,debugDAsAV:debugGawsa,-1.041211566226455e-28,1,1,0,0,0
TEST,4419255,12,10,3,6,6,guess,000100100010,C001001000100,C000110000100,000011000010,0,3,1,0,15,7,9,NA,10507,1724958640910,1724957384798,debugDAsAV:debugGawsa,6.55769893507751e-08,1,1,0,0,0
TEST,4419255,12,10,3,6,6,guess,000100100010,C001001000100,C100100000100,010010000010,0,3,1,1,16,7,10,NA,27645,1724958669358,1724957384798,debugDAsAV:debugGawsa,6.557699255419917e-08,1,1,0,0,0
TEST,4419255,12,10,3,6,7,forced,001100001000,C011000010000,C111010011000,011101001100,0,6,3,0,1,1,0,Hard,24549,1724958701073,1724957384798,debugDAsAV:debugGawsa,3.459419876053244,220,20,1,1,1
TEST,4419255,12,10,3,6,7,forced,001100001000,C011000010000,C100001111010,010000111101,0,6,1,0,2,2,0,Hard,17521,1724958719396,1724957384798,debugDAsAV:debugGawsa,1.1520017238166784,20,9,0,0,0
TEST,4419255,12,10,3,6,7,forced,001100001000,C011000010000,C010100001000,001010000100,0,3,1,0,3,3,0,Hard,27835,1724958748033,1724957384798,debugDAsAV:debugGawsa,0.8479960079512691,9,5,0,0,0
TEST,4419255,12,10,3,6,7,forced,001100001000,C011000010000,C000000011000,000000001100,0,2,1,0,4,4,0,Easy,34402,1724958783238,1724957384798,debugDAsAV:debugGawsa,0.7369651217244666,5,3,1,0,1
TEST,4419255,12,10,3,6,7,forced,001100001000,C011000010000,C100010001000,010001000100,0,3,0,0,5,5,0,Easy,24204,1724958808244,1724957384798,debugDAsAV:debugGawsa,1.5849602396393407,3,1,1,0,1
TEST,4419255,12,10,3,6,7,guess,001100001000,C011000010000,C011000010000,001100001000,1,3,3,1,6,6,1,NA,47445,1724958856491,1724957384798,debugDAsAV:debugGawsa,4.5903903039820463e-07,1,1,1,0,1
TEST,4419255,12,10,3,6,8,forced,001000100001,C010001000010,C101110001000,110111000100,0,6,0,0,1,1,0,Hard,40545,1724958902055,1724957384798,debugDAsAV:debugGawsa,3.4594198760532415,220,20,1,1,1
TEST,4419255,12,10,3,6,8,forced,001000100001,C010001000010,C101001010010,010100101001,0,5,2,0,2,2,0,Hard,21207,1724958924064,1724957384798,debugDAsAV:debugGawsa,1.1520018695431413,20,9,0,0,0
TEST,4419255,12,10,3,6,8,forced,001000100001,C010001000010,C110101100010,011010110001,0,6,3,0,3,3,0,Hard,23740,1724958948607,1724957384798,debugDAsAV:debugGawsa,2.1699211210555145,9,2,0,0,0
TEST,4419255,12,10,3,6,8,forced,001000100001,C010001000010,C010111000010,101011100001,0,6,3,0,4,4,0,Hard,67808,1724959017218,1724957384798,debugDAsAV:debugGawsa,0.9999992847797334,2,1,0,0,0
TEST,4419255,12,10,3,6,8,guess,001000100001,C010001000010,C010001000010,001000100001,1,3,3,1,5,5,1,NA,5040,1724959023060,1724957384798,debugDAsAV:debugGawsa,1.3115404459438696e-07,1,1,1,0,1
TEST,4419255,12,10,3,6,9,forced,100000100010,C000001000100,C100101001100,110010100110,0,6,3,0,1,1,0,Hard,47018,1724959073696,1724957384798,debugDAsAV:debugGawsa,3.4594198760532424,220,20,1,1,1
TEST,4419255,12,10,3,6,9,forced,100000100010,C000001000100,C100000000000,110000000000,0,2,1,0,2,2,0,Easy,62699,1724959137196,1724957384798,debugDAsAV:debugGawsa,0.7369650408462247,20,12,1,0,1
TEST,4419255,12,10,3,6,9,forced,100000100010,C000001000100,C000000001110,000000000111,0,3,1,0,3,3,0,Easy,20511,1724959158510,1724957384798,debugDAsAV:debugGawsa,0.5849620720693495,12,8,0,0,0
TEST,4419255,12,10,3,6,9,forced,100000100010,C000001000100,C110001001010,011000100101,0,5,1,0,4,4,0,Hard,9814,1724959169126,1724957384798,debugDAsAV:debugGawsa,1.4150354929981026,8,3,0,0,0
TEST,4419255,12,10,3,6,9,forced,100000100010,C000001000100,C001101101000,100110110100,0,6,2,0,5,5,0,Hard,66094,1724959236022,1724957384798,debugDAsAV:debugGawsa,1.584959999190821,3,1,0,0,0
TEST,4419255,12,10,3,6,9,guess,100000100010,C000001000100,C000001000100,100000100010,1,3,3,1,6,6,1,NA,10390,1724959247214,1724957384798,debugDAsAV:debugGawsa,7.869238731294292e-07,1,1,1,0,1
TEST,4419255,12,10,3,6,10,forced,011000001000,C110000010000,C010110010110,001011001011,0,6,2,0,1,1,0,Hard,47676,1724959297826,1724957384798,debugDAsAV:debugGawsa,1.2895049210433136,220,90,1,1,1
TEST,4419255,12,10,3,6,10,forced,011000001000,C110000010000,C001011011100,000101101110,0,6,1,0,2,2,0,Hard,18474,1724959317102,1724957384798,debugDAsAV:debugGawsa,1.3219263298559305,90,36,0,0,0
TEST,4419255,12,10,3,6,10,forced,011000001000,C110000010000,C000110100100,100011010010,0,5,0,0,3,3,0,Hard,17693,1724959335598,1724957384798,debugDAsAV:debugGawsa,2.847989639266941,36,5,0,0,0
TEST,4419255,12,10,3,6,10,forced,011000001000,C110000010000,C100011110000,010001111000,0,5,2,0,4,4,0,Hard,18912,1724959355312,1724957384798,debugDAsAV:debugGawsa,1.3219264646528959,5,2,0,0,0
TEST,4419255,12,10,3,6,10,forced,011000001000,C110000010000,C011100010000,101110001000,0,5,2,0,5,5,0,Hard,17685,1724959373798,1724957384798,debugDAsAV:debugGawsa,0.9999990552603969,2,1,0,0,0
TEST,4419255,12,10,3,6,10,guess,011000001000,C110000010000,C100000010010,010000001001,0,3,2,0,6,6,1,NA,73250,1724959447850,1724957384798,debugDAsAV:debugGawsa,3.2788499799274794e-07,1,1,0,0,0
TEST,4419255,12,10,3,6,10,guess,011000001000,C110000010000,C110001000000,011000100000,0,3,2,0,7,6,2,NA,43448,1724959492099,1724957384798,debugDAsAV:debugGawsa,6.557703131562834e-08,1,1,0,0,0
TEST,4419255,12,10,3,6,10,guess,011000001000,C110000010000,C010010010000,001001001000,0,3,2,0,8,6,3,NA,2784,1724959495684,1724957384798,debugDAsAV:debugGawsa,6.086505775916398e-15,1,1,1,0,1
TEST,4419255,12,10,3,6,10,guess,011000001000,C110000010000,C000010110000,000001011000,0,3,1,0,9,6,4,NA,2331,1724959498817,1724957384798,debugDAsAV:debugGawsa,-2.082423511075335e-28,1,1,1,0,1
TEST,4419255,12,10,3,6,10,guess,011000001000,C110000010000,C000000100010,100000010001,0,3,0,0,10,6,5,NA,2023,1724959501641,1724957384798,debugDAsAV:debugGawsa,-1.0412119448488604e-28,1,1,0,0,0
TEST,4419255,12,10,3,6,10,guess,011000001000,C110000010000,C010100100000,001010010000,0,3,1,0,11,6,6,NA,3286,1724959505729,1724957384798,debugDAsAV:debugGawsa,-4.732783073379522e-36,1,1,0,0,0
TEST,4419255,12,10,3,6,10,guess,011000001000,C110000010000,C100000000010,110000000001,0,3,1,0,12,6,7,NA,3107,1724959509638,1724957384798,debugDAsAV:debugGawsa,3.203424213149677e-15,1,1,0,0,0
TEST,4419255,12,10,3,6,10,guess,011000001000,C110000010000,C011001000000,001100100000,0,3,1,0,13,6,8,NA,3115,1724959513555,1724957384798,debugDAsAV:debugGawsa,-2.0824230377973075e-28,1,1,0,0,0
TEST,4419255,12,10,3,6,10,guess,011000001000,C110000010000,C001001000100,000100100010,0,3,0,0,14,6,9,NA,2128,1724959516485,1724957384798,debugDAsAV:debugGawsa,-4.732780061610304e-36,1,1,1,0,1
TEST,4419255,12,10,3,6,10,guess,011000001000,C110000010000,C101001000000,010100100000,0,3,1,1,15,6,10,NA,2475,1724959519763,1724957384798,debugDAsAV:debugGawsa,-4.732780276736612e-36,1,1,0,0,0
TEST,5699402,12,10,3,6,1,forced,100010000010,C000100000100,C110011110000,011001111000,0,6,0,0,1,1,0,Hard,13421,1724957448800,1724957387481,debugBJMB2:debugrjZZt,3.4594198760532437,220,20,1,1,1
TEST,5699402,12,10,3,6,1,forced,100010000010,C000100000100,C010001001100,101000100110,0,5,2,0,2,2,0,Hard,7568,1724957457195,1724957387481,debugBJMB2:debugrjZZt,1.1520018695431409,20,9,0,0,0
TEST,5699402,12,10,3,6,1,forced,100010000010,C000100000100,C101001111000,010100111100,0,6,0,0,3,3,0,Hard,10929,1724957468939,1724957387481,debugBJMB2:debugrjZZt,2.1699211210555154,9,2,0,0,0
TEST,5699402,12,10,3,6,1,forced,100010000010,C000100000100,C000000000110,000000000011,0,2,1,0,4,4,0,Easy,7311,1724957477057,1724957387481,debugBJMB2:debugrjZZt,0.9999987601642183,2,1,0,0,0
TEST,5699402,12,10,3,6,1,guess,100010000010,C000100000100,C000000000110,100000000011,0,3,2,0,5,5,1,NA,42692,1724957520551,1724957387481,debugBJMB2:debugrjZZt,3.278849592313259e-07,1,1,0,0,0
TEST,5699402,12,10,3,6,1,guess,100010000010,C000100000100,C000100000010,100010000001,0,3,2,0,6,5,2,NA,29858,1724957551213,1724957387481,debugBJMB2:debugrjZZt,1.967309921052667e-07,1,1,0,0,0
TEST,5699402,12,10,3,6,1,guess,100010000010,C000100000100,C010000000010,101000000001,0,3,1,0,7,5,3,NA,20249,1724957572274,1724957387481,debugBJMB2:debugrjZZt,1.311540026295357e-07,1,1,0,0,0
TEST,5699402,12,10,3,6,1,guess,100010000010,C000100000100,C000000000110,100000000011,0,3,2,0,8,5,4,NA,22021,1724957595104,1724957387481,debugBJMB2:debugrjZZt,-7.288481484190982e-28,1,1,1,0,1
TEST,5699402,12,10,3,6,1,guess,100010000010,C000100000100,C000100000110,000010000011,0,3,2,0,9,5,5,NA,16914,1724957612818,1724957387481,debugBJMB2:debugrjZZt,1.5056093114603116e-14,1,1,0,0,0
TEST,5699402,12,10,3,6,1,guess,100010000010,C000100000100,C000100000010,100010000001,0,3,2,0,10,5,6,NA,7102,1724957620734,1724957387481,debugBJMB2:debugrjZZt,-4.164846501544803e-28,1,1,1,0,1
TEST,5699402,12,10,3,6,1,guess,100010000010,C000100000100,C000100000100,100010000010,1,3,3,1,11,5,7,NA,6522,1724957628064,1724957387481,debugBJMB2:debugrjZZt,-3.1236350773017736e-28,1,1,0,0,0
TEST,5699402,12,10,3,6,2,forced,000000110100,C000001101000,C000000001110,000000000111,0,3,1,0,1,1,0,Easy,7575,1724957642478,1724957387481,debugBJMB2:debugrjZZt,1.0264709936112513,220,108,1,1,1
TEST,5699402,12,10,3,6,2,forced,000000110100,C000001101000,C110100011000,011010001100,0,5,1,0,2,2,0,Hard,9862,1724957653154,1724957387481,debugBJMB2:debugrjZZt,1.1110299461195434,108,50,0,0,0
TEST,5699402,12,10,3,6,2,forced,000000110100,C000001101000,C001110000000,000111000000,0,3,0,0,3,3,0,Easy,7431,1724957661389,1724957387481,debugBJMB2:debugrjZZt,1.251537159327695,50,21,0,0,0
TEST,5699402,12,10,3,6,2,forced,000000110100,C000001101000,C100000000000,110000000000,0,2,0,0,4,4,0,Easy,21797,1724957683989,1724957387481,debugBJMB2:debugrjZZt,1.2223907963264762,21,9,0,0,0
TEST,5699402,12,10,3,6,2,forced,000000110100,C000001101000,C000000010010,000000001001,0,2,0,0,5,5,0,Easy,11118,1724957695923,1724957387481,debugBJMB2:debugrjZZt,1.5849600210497568,9,3,0,0,0
TEST,5699402,12,10,3,6,2,forced,000000110100,C000001101000,C000001001000,000000100100,0,2,2,0,6,6,0,Easy,26852,1724957723581,1724957387481,debugBJMB2:debugrjZZt,1.5849604582289623,3,1,0,0,0
TEST,5699402,12,10,3,6,2,guess,000000110100,C000001101000,C000001101000,000000110100,1,3,3,1,7,7,1,NA,28131,1724957752527,1724957387481,debugBJMB2:debugrjZZt,4.5903898843336275e-07,1,1,0,0,0
TEST,5699402,12,10,3,6,3,forced,010110000000,C101100000000,C001110000000,000111000000,0,3,2,0,1,1,0,Easy,17094,1724957775543,1724957387481,debugBJMB2:debugrjZZt,3.0264638175870866,220,27,1,1,1
TEST,5699402,12,10,3,6,3,forced,010110000000,C101100000000,C011000000000,001100000000,0,2,1,0,2,2,0,Easy,5730,1724957782085,1724957387481,debugBJMB2:debugrjZZt,0.6674241573312136,27,17,0,0,0
TEST,5699402,12,10,3,6,3,forced,010110000000,C101100000000,C000001110000,000000111000,0,3,0,0,3,3,0,Easy,13673,1724957796560,1724957387481,debugBJMB2:debugrjZZt,0.6280306757394692,17,11,0,1,1
TEST,5699402,12,10,3,6,3,forced,010110000000,C101100000000,C110000000000,111000000000,0,3,1,0,4,4,0,Easy,7992,1724957805358,1724957387481,debugBJMB2:debugrjZZt,1.137502127754679,11,5,0,0,0
TEST,5699402,12,10,3,6,3,forced,010110000000,C101100000000,C110110001100,011011000110,0,6,2,0,5,5,0,Hard,23367,1724957829569,1724957387481,debugBJMB2:debugrjZZt,1.321926235133737,5,2,0,0,0
TEST,5699402,12,10,3,6,3,forced,010110000000,C101100000000,C110100101100,011010010110,0,6,2,0,6,6,0,Hard,19048,1724957849424,1724957387481,debugBJMB2:debugrjZZt,0.9999987601642032,2,1,0,0,0
TEST,5699402,12,10,3,6,3,guess,010110000000,C101100000000,C101000000100,010100000010,0,3,2,0,7,7,1,NA,31909,1724957882135,1724957387481,debugBJMB2:debugrjZZt,4.590389230835333e-07,1,1,0,0,0
TEST,5699402,12,10,3,6,3,guess,010110000000,C101100000000,C001100000100,000110000010,0,3,2,0,8,7,2,NA,34902,1724957917847,1724957387481,debugBJMB2:debugrjZZt,1.967309924256093e-07,1,1,0,0,0
TEST,5699402,12,10,3,6,3,guess,010110000000,C101100000000,C100100001000,010010000100,0,3,2,0,9,7,3,NA,22370,1724957941024,1724957387481,debugBJMB2:debugrjZZt,2.0822256240139314e-14,1,1,1,0,1
TEST,5699402,12,10,3,6,3,guess,010110000000,C101100000000,C101100000000,010110000000,1,3,3,1,10,7,4,NA,26848,1724957968717,1724957387481,debugBJMB2:debugrjZZt,6.086505775917127e-15,1,1,0,0,0
TEST,5699402,12,10,3,6,4,forced,011000001000,C110000010000,C001110000000,000111000000,0,3,0,0,1,1,0,Easy,4231,1724957978651,1724957387481,debugBJMB2:debugrjZZt,1.38904038956492,220,84,1,1,1
TEST,5699402,12,10,3,6,4,forced,011000001000,C110000010000,C000000001110,000000000111,0,3,0,0,2,2,0,Easy,2872,1724957982333,1724957387481,debugBJMB2:debugrjZZt,2.0703854665895425,84,20,0,1,1
TEST,5699402,12,10,3,6,4,forced,011000001000,C110000010000,C000001100000,000000110000,0,2,0,0,3,3,0,Easy,11288,1724957994423,1724957387481,debugBJMB2:debugrjZZt,2.321922801104032,20,4,0,1,1
TEST,5699402,12,10,3,6,4,forced,011000001000,C110000010000,C100000000000,110000000000,0,2,1,0,4,4,0,Easy,3520,1724957998795,1724957387481,debugBJMB2:debugrjZZt,0.9999985962220735,4,2,0,1,1
TEST,5699402,12,10,3,6,4,forced,011000001000,C110000010000,C000101001110,100010100111,0,6,0,0,5,5,0,Hard,16902,1724958016509,1724957387481,debugBJMB2:debugrjZZt,0.999999940548472,2,1,0,0,0
TEST,5699402,12,10,3,6,4,guess,011000001000,C110000010000,C110000010000,011000001000,1,3,3,1,6,6,1,NA,16047,1724958033361,1724957387481,debugBJMB2:debugrjZZt,5.246160229092309e-07,1,1,0,0,0
TEST,5699402,12,10,3,6,5,forced,000100100100,C001001001000,C001110000000,000111000000,0,3,1,0,1,1,0,Easy,3510,1724958042060,1724957387481,debugBJMB2:debugrjZZt,1.026470993611252,220,108,1,1,1
TEST,5699402,12,10,3,6,5,forced,000100100100,C001001001000,C000000001110,000000000111,0,3,1,0,2,2,0,Easy,4771,1724958047641,1724957387481,debugBJMB2:debugrjZZt,0.9999988281699028,108,54,0,1,1
TEST,5699402,12,10,3,6,5,forced,000100100100,C001001001000,C011000000000,001100000000,0,2,1,0,3,3,0,Easy,8791,1724958057234,1724957387481,debugBJMB2:debugrjZZt,1.3625682278753914,54,21,0,0,0
TEST,5699402,12,10,3,6,5,forced,000100100100,C001001001000,C000000011000,000000001100,0,2,1,0,4,4,0,Easy,9139,1724958067183,1724957387481,debugBJMB2:debugrjZZt,1.3923155173405157,21,8,0,0,0
TEST,5699402,12,10,3,6,5,forced,000100100100,C001001001000,C000001001000,100000100100,0,3,2,0,5,5,0,Easy,9085,1724958077135,1724957387481,debugBJMB2:debugrjZZt,1.9999966247715726,8,2,0,0,0
TEST,5699402,12,10,3,6,5,forced,000100100100,C001001001000,C000100000010,100010000001,0,3,0,0,6,6,0,Easy,20464,1724958098410,1724957387481,debugBJMB2:debugrjZZt,0.999998825741129,2,1,0,0,0
TEST,5699402,12,10,3,6,5,guess,000100100100,C001001001000,C001001001000,000100100100,1,3,3,1,7,7,1,NA,28089,1724958127314,1724957387481,debugBJMB2:debugrjZZt,4.5903898266720147e-07,1,1,0,0,0
TEST,5699402,12,10,3,6,6,forced,100100100000,C001001000000,C001110000000,000111000000,0,3,1,0,1,1,0,Easy,19521,1724958150706,1724957387481,debugBJMB2:debugrjZZt,1.026470993611252,220,108,1,1,1
TEST,5699402,12,10,3,6,6,forced,100100100000,C001001000000,C000000001110,000000000111,0,3,0,0,2,2,0,Easy,4804,1724958156314,1724957387481,debugBJMB2:debugrjZZt,1.263032773043765,108,45,0,1,1
TEST,5699402,12,10,3,6,6,forced,100100100000,C001001000000,C111000010000,011100001000,0,4,1,0,3,3,0,Hard,9980,1724958167100,1724957387481,debugBJMB2:debugrjZZt,1.0995343271689864,45,21,0,0,0
TEST,5699402,12,10,3,6,6,forced,100100100000,C001001000000,C100000000000,110000000000,0,2,1,0,4,4,0,Easy,5924,1724958173838,1724957387481,debugBJMB2:debugrjZZt,1.0703880608760634,21,10,0,0,0
TEST,5699402,12,10,3,6,6,forced,100100100000,C001001000000,C100010000000,010001000000,0,2,0,0,5,5,0,Easy,13099,1724958187747,1724957387481,debugBJMB2:debugrjZZt,1.3219263302202418,10,4,0,0,0
TEST,5699402,12,10,3,6,6,forced,100100100000,C001001000000,C001000101000,000100010100,0,3,1,0,6,6,0,Hard,22411,1724958210986,1724957387481,debugBJMB2:debugrjZZt,1.9999960673685973,4,1,0,0,0
TEST,5699402,12,10,3,6,6,guess,100100100000,C001001000000,C001000001000,100100000100,0,3,2,0,7,7,1,NA,34879,1724958246675,1724957387481,debugBJMB2:debugrjZZt,5.901927891609189e-07,1,1,0,0,0
TEST,5699402,12,10,3,6,6,guess,100100100000,C001001000000,C001001000000,100100100000,1,3,3,1,8,7,2,NA,8061,1724958255537,1724957387481,debugBJMB2:debugrjZZt,3.9346196667349026e-07,1,1,0,0,0
TEST,5699402,12,10,3,6,7,forced,000001110000,C000011100000,C000000001110,000000000111,0,3,0,0,1,1,0,Easy,3309,1724958262287,1724957387481,debugBJMB2:debugrjZZt,1.38904038956492,220,84,1,1,1
TEST,5699402,12,10,3,6,7,forced,000001110000,C000011100000,C001110000000,000111000000,0,3,1,0,2,2,0,Easy,2815,1724958265903,1724957387481,debugBJMB2:debugrjZZt,0.9004633231225307,84,45,0,1,1
TEST,5699402,12,10,3,6,7,forced,000001110000,C000011100000,C011000000000,001100000000,0,2,0,0,3,3,0,Easy,7286,1724958273999,1724957387481,debugBJMB2:debugrjZZt,1.1699235150386071,45,20,0,0,0
TEST,5699402,12,10,3,6,7,forced,000001110000,C000011100000,C100000000000,110000000000,0,2,0,0,4,4,0,Easy,16123,1724958290923,1724957387481,debugBJMB2:debugrjZZt,1.7369626662419948,20,6,0,1,1
TEST,5699402,12,10,3,6,7,forced,000001110000,C000011100000,C000011000000,000001100000,0,2,2,0,5,5,0,Easy,2599,1724958294333,1724957387481,debugBJMB2:debugrjZZt,1.584960512876353,6,2,0,0,0
TEST,5699402,12,10,3,6,7,forced,000001110000,C000011100000,C000001100010,000000110001,0,3,2,0,6,6,0,Easy,12329,1724958307465,1724957387481,debugBJMB2:debugrjZZt,0.9999990552604471,2,1,0,0,0
TEST,5699402,12,10,3,6,7,guess,000001110000,C000011100000,C000101100000,000010110000,0,3,2,0,7,7,1,NA,23031,1724958331307,1724957387481,debugBJMB2:debugrjZZt,1.9673099819177166e-07,1,1,0,0,0
TEST,5699402,12,10,3,6,7,guess,000001110000,C000011100000,C000011100000,000001110000,1,3,3,1,8,7,2,NA,2776,1724958334885,1724957387481,debugBJMB2:debugrjZZt,2.979184357882367e-14,1,1,0,0,0
TEST,5699402,12,10,3,6,8,forced,010001000100,C100010001000,C001110000000,000111000000,0,3,1,0,1,1,0,Easy,3301,1724958341921,1724957387481,debugBJMB2:debugrjZZt,1.026470993611252,220,108,1,1,1
TEST,5699402,12,10,3,6,8,forced,010001000100,C100010001000,C000000001110,000000000111,0,3,1,0,2,2,0,Easy,2934,1724958345657,1724957387481,debugBJMB2:debugrjZZt,0.9999988281699028,108,54,0,1,1
TEST,5699402,12,10,3,6,8,forced,010001000100,C100010001000,C011000000000,001100000000,0,2,0,0,3,3,0,Easy,2486,1724958348952,1724957387481,debugBJMB2:debugrjZZt,0.8479959693337422,54,30,0,0,0
TEST,5699402,12,10,3,6,8,forced,010001000100,C100010001000,C000000011000,000000001100,0,2,1,0,4,4,0,Easy,4348,1724958354114,1724957387481,debugBJMB2:debugrjZZt,1.3219263181978138,30,12,0,0,0
TEST,5699402,12,10,3,6,8,forced,010001000100,C100010001000,C000001001000,100000100100,0,3,1,0,5,5,0,Easy,4382,1724958359336,1724957387481,debugBJMB2:debugrjZZt,1.5849599718671055,12,4,0,0,0
TEST,5699402,12,10,3,6,8,forced,010001000100,C100010001000,C100101000110,010010100011,0,5,1,0,6,6,0,Hard,10010,1724958370161,1724957387481,debugBJMB2:debugrjZZt,0.9999988749238202,4,2,0,0,0
TEST,5699402,12,10,3,6,8,forced,010001000100,C100010001000,C001011000000,000101100000,0,3,1,0,7,7,0,Hard,4995,1724958375956,1724957387481,debugBJMB2:debugrjZZt,0.9999988585295811,2,1,0,0,0
TEST,5699402,12,10,3,6,8,guess,010001000100,C100010001000,C000110001000,000011000100,0,3,2,0,8,8,1,NA,56825,1724958433584,1724957387481,debugBJMB2:debugrjZZt,3.934619336782314e-07,1,1,0,0,0
TEST,5699402,12,10,3,6,8,guess,010001000100,C100010001000,C000101001000,000010100100,0,3,1,0,9,8,2,NA,19105,1724958453529,1724957387481,debugBJMB2:debugrjZZt,6.557702234604138e-08,1,1,0,0,0
TEST,5699402,12,10,3,6,8,guess,010001000100,C100010001000,C100100100000,010010010000,0,3,1,0,10,8,3,NA,42166,1724958496520,1724957387481,debugBJMB2:debugrjZZt,1.311539936599492e-07,1,1,0,0,0
TEST,5699402,12,10,3,6,8,guess,010001000100,C100010001000,C000110001000,000011000100,0,3,2,0,11,8,4,NA,11644,1724958508972,1724957387481,debugBJMB2:debugrjZZt,2.8830815627678735e-15,1,1,1,0,1
TEST,5699402,12,10,3,6,8,guess,010001000100,C100010001000,C100000001000,110000000100,0,3,2,0,12,8,5,NA,8706,1724958518481,1724957387481,debugBJMB2:debugrjZZt,6.55770015237861e-08,1,1,0,0,0
TEST,5699402,12,10,3,6,8,guess,010001000100,C100010001000,C000100001100,000010000110,0,3,1,0,13,8,6,NA,7552,1724958526835,1724957387481,debugBJMB2:debugrjZZt,-2.0824233217641007e-28,1,1,0,0,0
TEST,5699402,12,10,3,6,8,guess,010001000100,C100010001000,C000100000110,000010000011,0,3,0,0,14,8,7,NA,9451,1724958537093,1724957387481,debugBJMB2:debugrjZZt,-1.0412117082098594e-28,1,1,1,0,1
TEST,5699402,12,10,3,6,8,guess,010001000100,C100010001000,C001000001100,000100000110,0,3,1,0,15,8,8,NA,6509,1724958544408,1724957387481,debugBJMB2:debugrjZZt,-1.0412115188986573e-28,1,1,0,0,0
TEST,5699402,12,10,3,6,8,guess,010001000100,C100010001000,C000110000100,000011000010,0,3,1,0,16,8,9,NA,39579,1724958584794,1724957387481,debugBJMB2:debugrjZZt,-4.7327804918630386e-36,1,1,0,0,0
