N_OPTIONS,RT,correct,current_time,filter_cost,guess,guess_number,guess_number_human,guess_size,max_guess_size,nStartingGuesses,overlap,phase,pid,start_time,total_trials,trial_id,true_set,true_set_size,whose_guess,uniqueid,opts_remaining_prev,opts_remaining_post,all_within,all_independent,all_wn_or_ind
12,4,0,1714507544178,4,C000000000111,1,0,3,6,1,0,TEST,5047908,1714507538619,10,1,C001011000000,3,model,debugLpDTf:debugMerNV,220,84,1,1,1
12,4779,0,1714507548958,4,C000000111000,2,1,3,6,1,0,TEST,5047908,1714507538619,10,1,C001011000000,3,human,debugLpDTf:debugMerNV,84,20,0,1,1
12,2680,0,1714507551643,4,C000111000000,3,2,3,6,1,2,TEST,5047908,1714507538619,10,1,C001011000000,3,human,debugLpDTf:debugMerNV,20,9,0,1,1
12,5130,0,1714507556778,4,C001110000000,4,3,3,6,1,2,TEST,5047908,1714507538619,10,1,C001011000000,3,human,debugLpDTf:debugMerNV,9,4,0,0,0
12,3569,0,1714507560351,4,C010110000000,5,4,3,6,1,1,TEST,5047908,1714507538619,10,1,C001011000000,3,human,debugLpDTf:debugMerNV,4,2,0,0,0
12,4756,0,1714507565110,4,C001101000000,6,5,3,6,1,2,TEST,5047908,1714507538619,10,1,C001011000000,3,human,debugLpDTf:debugMerNV,2,1,0,0,0
12,3312,1,1714507568425,4,C001011000000,7,6,3,6,1,3,TEST,5047908,1714507538619,10,1,C001011000000,3,human,debugLpDTf:debugMerNV,1,1,0,0,0
12,1,0,1714507570588,0,C101100011001,1,0,6,6,4,1,TEST,5047908,1714507538619,10,2,C010000101000,3,model,debugLpDTf:debugMerNV,220,90,1,1,1
12,9,0,1714507570597,0,C100010001111,2,0,6,6,4,1,TEST,5047908,1714507538619,10,2,C010000101000,3,model,debugLpDTf:debugMerNV,90,36,0,0,0
12,15,0,1714507570613,0,C000111010010,3,0,5,6,4,0,TEST,5047908,1714507538619,10,2,C010000101000,3,model,debugLpDTf:debugMerNV,36,5,0,0,0
12,10,1,1714507570625,0,C010000101000,4,0,3,6,4,3,TEST,5047908,1714507538619,10,2,C010000101000,3,model,debugLpDTf:debugMerNV,5,1,0,0,0
12,5,0,1714507828097,0,C100001101101,1,0,6,6,2,2,TEST,5872418,1714507823853,10,1,C100010001000,3,model,debugLpDTf:debugMerNV,220,90,1,1,1
12,9,0,1714507828107,0,C100110000111,2,0,6,6,2,2,TEST,5872418,1714507823853,10,1,C100010001000,3,model,debugLpDTf:debugMerNV,90,36,0,0,0
12,10758,0,1714507838866,0,C100000000000,3,1,1,6,2,1,TEST,5872418,1714507823853,10,1,C100010001000,3,human,debugLpDTf:debugMerNV,36,15,1,0,1
12,5157,0,1714507844027,0,C000000000100,4,2,1,6,2,0,TEST,5872418,1714507823853,10,1,C100010001000,3,human,debugLpDTf:debugMerNV,15,12,1,0,1
12,4064,0,1714507848095,0,C000000000001,5,3,1,6,2,0,TEST,5872418,1714507823853,10,1,C100010001000,3,human,debugLpDTf:debugMerNV,12,9,1,0,1
12,7353,0,1714507855451,0,C000100000010,6,4,2,6,2,0,TEST,5872418,1714507823853,10,1,C100010001000,3,human,debugLpDTf:debugMerNV,9,3,1,0,1
12,5049,0,1714507860503,0,C100011000000,7,5,3,6,2,2,TEST,5872418,1714507823853,10,1,C100010001000,3,human,debugLpDTf:debugMerNV,3,2,0,0,0
12,4621,0,1714507865127,0,C100010100000,8,6,3,6,2,2,TEST,5872418,1714507823853,10,1,C100010001000,3,human,debugLpDTf:debugMerNV,2,1,0,0,0
12,5379,1,1714507870511,0,C100010001000,9,7,3,6,2,3,TEST,5872418,1714507823853,10,1,C100010001000,3,human,debugLpDTf:debugMerNV,1,1,0,0,0
12,1,0,1714507883488,0,C101110100010,1,0,6,6,3,1,TEST,5872418,1714507823853,10,2,C000000010011,3,model,debugLpDTf:debugMerNV,220,90,1,1,1
12,9,0,1714507883497,0,C000111111000,2,0,6,6,3,1,TEST,5872418,1714507823853,10,2,C000000010011,3,model,debugLpDTf:debugMerNV,90,36,0,0,0
12,12,0,1714507883510,0,C001000011110,3,0,5,6,3,2,TEST,5872418,1714507823853,10,2,C000000010011,3,model,debugLpDTf:debugMerNV,36,12,0,0,0
12,8060,0,1714507891571,0,C111100000000,4,1,4,6,3,0,TEST,5872418,1714507823853,10,2,C000000010011,3,human,debugLpDTf:debugMerNV,12,3,0,0,0
12,4197,0,1714507895771,0,C000011110000,5,2,4,6,3,1,TEST,5872418,1714507823853,10,2,C000000010011,3,human,debugLpDTf:debugMerNV,3,2,1,0,1
12,3681,0,1714507899455,0,C000000001111,6,3,4,6,3,2,TEST,5872418,1714507823853,10,2,C000000010011,3,human,debugLpDTf:debugMerNV,2,2,0,0,0
12,4361,0,1714507903819,0,C000000001100,7,4,2,6,3,0,TEST,5872418,1714507823853,10,2,C000000010011,3,human,debugLpDTf:debugMerNV,2,1,1,0,1
12,18263,0,1714507922087,0,C000000010010,8,5,2,6,3,2,TEST,5872418,1714507823853,10,2,C000000010011,3,human,debugLpDTf:debugMerNV,1,1,1,0,1
12,10056,1,1714507932147,0,C000000010011,9,6,3,6,3,3,TEST,5872418,1714507823853,10,2,C000000010011,3,human,debugLpDTf:debugMerNV,1,1,0,0,0
12,1,0,1714507934154,0,C010001100111,1,0,6,6,3,1,TEST,5872418,1714507823853,10,3,C011000001000,3,model,debugLpDTf:debugMerNV,220,90,1,1,1
12,12,0,1714507934166,0,C100000111011,2,0,6,6,3,1,TEST,5872418,1714507823853,10,3,C011000001000,3,model,debugLpDTf:debugMerNV,90,36,0,0,0
12,11,0,1714507934178,0,C111000010100,3,0,5,6,3,2,TEST,5872418,1714507823853,10,3,C011000001000,3,model,debugLpDTf:debugMerNV,36,12,0,0,0
12,10064,0,1714507944243,0,C110000000000,4,1,2,6,3,1,TEST,5872418,1714507823853,10,3,C011000001000,3,human,debugLpDTf:debugMerNV,12,6,1,0,1
12,2095,0,1714507946343,0,C001000000000,5,2,1,6,3,1,TEST,5872418,1714507823853,10,3,C011000001000,3,human,debugLpDTf:debugMerNV,6,2,1,0,1
12,2464,0,1714507948812,0,C100000000000,6,3,1,6,3,0,TEST,5872418,1714507823853,10,3,C011000001000,3,human,debugLpDTf:debugMerNV,2,1,1,0,1
12,7344,0,1714507956159,0,C011000000010,7,4,3,6,3,2,TEST,5872418,1714507823853,10,3,C011000001000,3,human,debugLpDTf:debugMerNV,1,1,0,0,0
12,4224,0,1714507960387,0,C011010000000,8,5,3,6,3,2,TEST,5872418,1714507823853,10,3,C011000001000,3,human,debugLpDTf:debugMerNV,1,1,0,0,0
12,8313,0,1714507968703,0,C011000100000,9,6,3,6,3,2,TEST,5872418,1714507823853,10,3,C011000001000,3,human,debugLpDTf:debugMerNV,1,1,0,0,0
12,3153,0,1714507971859,0,C011000010000,10,7,3,6,3,2,TEST,5872418,1714507823853,10,3,C011000001000,3,human,debugLpDTf:debugMerNV,1,1,1,0,1
12,3822,0,1714507975687,0,C011001000000,11,8,3,6,3,2,TEST,5872418,1714507823853,10,3,C011000001000,3,human,debugLpDTf:debugMerNV,1,1,0,0,0
12,5901,0,1714507981591,0,C011000000100,12,9,3,6,3,2,TEST,5872418,1714507823853,10,3,C011000001000,3,human,debugLpDTf:debugMerNV,1,1,1,0,1
12,3553,0,1714507985147,0,C011000000010,13,10,3,6,3,2,TEST,5872418,1714507823853,10,3,C011000001000,3,human,debugLpDTf:debugMerNV,1,1,1,0,1
12,5,0,1714508064112,4,C000000000111,1,0,3,6,4,0,TEST,3118359,1714508059662,10,1,C100001100000,3,model,debugLpDTf:debugMerNV,220,84,1,1,1
12,6,0,1714508064120,4,C000111000000,2,0,3,6,4,1,TEST,3118359,1714508059662,10,1,C100001100000,3,model,debugLpDTf:debugMerNV,84,45,0,1,1
12,9,0,1714508064130,4,C000000111000,3,0,3,6,4,1,TEST,3118359,1714508059662,10,1,C100001100000,3,model,debugLpDTf:debugMerNV,45,27,0,1,1
12,12,0,1714508064142,4,C000100100000,4,0,2,6,4,1,TEST,3118359,1714508059662,10,1,C100001100000,3,model,debugLpDTf:debugMerNV,27,12,0,0,0
12,12584,0,1714508076727,4,C000100010000,5,1,2,6,4,0,TEST,3118359,1714508059662,10,1,C100001100000,3,human,debugLpDTf:debugMerNV,12,6,0,0,0
12,4267,0,1714508080999,4,C000010101000,6,2,3,6,4,1,TEST,3118359,1714508059662,10,1,C100001100000,3,human,debugLpDTf:debugMerNV,6,3,0,0,0
12,10858,0,1714508091861,4,C000100000000,7,3,1,6,4,0,TEST,3118359,1714508059662,10,1,C100001100000,3,human,debugLpDTf:debugMerNV,3,3,1,0,1
12,6721,0,1714508098583,4,C011010000000,8,4,3,6,4,0,TEST,3118359,1714508059662,10,1,C100001100000,3,human,debugLpDTf:debugMerNV,3,1,0,0,0
12,3234,0,1714508101820,4,C010010000000,9,5,2,6,4,0,TEST,3118359,1714508059662,10,1,C100001100000,3,human,debugLpDTf:debugMerNV,1,1,1,0,1
12,4111,0,1714508105936,4,C100000000000,10,6,1,6,4,1,TEST,3118359,1714508059662,10,1,C100001100000,3,human,debugLpDTf:debugMerNV,1,1,0,1,1
12,17324,0,1714508123263,4,C100100010000,11,7,3,6,4,1,TEST,3118359,1714508059662,10,1,C100001100000,3,human,debugLpDTf:debugMerNV,1,1,0,0,0
12,8016,0,1714508131282,4,C100010100000,12,8,3,6,4,2,TEST,3118359,1714508059662,10,1,C100001100000,3,human,debugLpDTf:debugMerNV,1,1,0,0,0
12,4821,0,1714508136107,4,C100010001000,13,9,3,6,4,1,TEST,3118359,1714508059662,10,1,C100001100000,3,human,debugLpDTf:debugMerNV,1,1,0,0,0
12,24891,1,1714508161003,4,C100001100000,14,10,3,6,4,3,TEST,3118359,1714508059662,10,1,C100001100000,3,human,debugLpDTf:debugMerNV,1,1,0,0,0
12,0,0,1714508163570,4,C000000000111,1,0,3,6,4,2,TEST,3118359,1714508059662,10,2,C000000010011,3,model,debugLpDTf:debugMerNV,220,27,1,1,1
12,9,0,1714508163579,4,C000000111000,2,0,3,6,4,1,TEST,3118359,1714508059662,10,2,C000000010011,3,model,debugLpDTf:debugMerNV,27,9,0,1,1
12,13,0,1714508163592,4,C000000010100,3,0,2,6,4,1,TEST,3118359,1714508059662,10,2,C000000010011,3,model,debugLpDTf:debugMerNV,9,5,0,0,0
12,11,0,1714508163604,4,C000000100100,4,0,2,6,4,0,TEST,3118359,1714508059662,10,2,C000000010011,3,model,debugLpDTf:debugMerNV,5,1,0,0,0
12,18447,1,1714508182051,4,C000000010011,5,1,3,6,4,3,TEST,3118359,1714508059662,10,2,C000000010011,3,human,debugLpDTf:debugMerNV,1,1,0,0,0
12,0,0,1714508183940,4,C000111000000,1,0,3,6,2,2,TEST,3118359,1714508059662,10,3,C000101001000,3,model,debugLpDTf:debugMerNV,220,27,1,1,1
12,11,0,1714508183951,4,C000000111000,2,0,3,6,2,1,TEST,3118359,1714508059662,10,3,C000101001000,3,model,debugLpDTf:debugMerNV,27,9,0,1,1
12,8772,0,1714508192724,4,C000110100000,3,1,3,6,2,1,TEST,3118359,1714508059662,10,3,C000101001000,3,human,debugLpDTf:debugMerNV,9,4,0,0,0
12,5136,0,1714508197862,4,C000101010000,4,2,3,6,2,2,TEST,3118359,1714508059662,10,3,C000101001000,3,human,debugLpDTf:debugMerNV,4,2,0,0,0
12,3013,1,1714508200876,4,C000101001000,5,3,3,6,2,3,TEST,3118359,1714508059662,10,3,C000101001000,3,human,debugLpDTf:debugMerNV,2,1,0,0,0
12,4848,0,1714508208016,0,C111111000000,1,1,6,6,0,2,TEST,3118359,1714508059662,10,4,C010010001000,3,human,debugLpDTf:debugMerNV,220,90,1,1,1
12,2544,0,1714508210563,0,C000111000000,2,2,3,6,0,1,TEST,3118359,1714508059662,10,4,C010010001000,3,human,debugLpDTf:debugMerNV,90,54,1,0,1
12,4168,0,1714508214735,0,C100100100000,3,3,3,6,0,0,TEST,3118359,1714508059662,10,4,C010010001000,3,human,debugLpDTf:debugMerNV,54,20,0,0,0
12,3200,0,1714508217940,0,C010010010000,4,4,3,6,0,2,TEST,3118359,1714508059662,10,4,C010010001000,3,human,debugLpDTf:debugMerNV,20,6,0,0,0
12,3585,1,1714508221528,0,C010010001000,5,5,3,6,0,3,TEST,3118359,1714508059662,10,4,C010010001000,3,human,debugLpDTf:debugMerNV,6,1,0,0,0
12,4262,0,1714508228556,0,C111111000000,1,1,6,6,0,2,TEST,3118359,1714508059662,10,5,C011000000100,3,human,debugLpDTf:debugMerNV,220,90,1,1,1
12,3440,0,1714508232000,0,C000000111000,2,2,3,6,0,0,TEST,3118359,1714508059662,10,5,C011000000100,3,human,debugLpDTf:debugMerNV,90,45,0,1,1
12,3495,0,1714508235500,0,C111000000100,3,3,4,6,0,3,TEST,3118359,1714508059662,10,5,C011000000100,3,human,debugLpDTf:debugMerNV,45,3,0,0,0
12,4885,0,1714508240388,0,C110000000100,4,4,3,6,0,2,TEST,3118359,1714508059662,10,5,C011000000100,3,human,debugLpDTf:debugMerNV,3,2,1,0,1
12,3280,0,1714508243672,0,C101000000100,5,5,3,6,0,2,TEST,3118359,1714508059662,10,5,C011000000100,3,human,debugLpDTf:debugMerNV,2,1,1,0,1
12,4096,1,1714508247772,0,C011000000100,6,6,3,6,0,3,TEST,3118359,1714508059662,10,5,C011000000100,3,human,debugLpDTf:debugMerNV,1,1,1,0,1
12,2,0,1714508775116,0,C010010011011,1,0,6,6,4,2,TEST,1719746,1714508746715,10,1,C110010000000,3,model,debugLMfc8:debugRopCq,220,90,1,1,1
12,4,0,1714508775121,0,C110001001101,2,0,6,6,4,2,TEST,1719746,1714508746715,10,1,C110010000000,3,model,debugLMfc8:debugRopCq,90,36,0,0,0
12,10,0,1714508775132,0,C000011001110,3,0,5,6,4,1,TEST,1719746,1714508746715,10,1,C110010000000,3,model,debugLMfc8:debugRopCq,36,15,0,0,0
12,10,0,1714508775142,0,C110011010100,4,0,6,6,4,3,TEST,1719746,1714508746715,10,1,C110010000000,3,model,debugLMfc8:debugRopCq,15,3,0,0,0
12,32109,0,1714508807252,0,C111111000000,5,1,6,6,4,3,TEST,1719746,1714508746715,10,1,C110010000000,3,human,debugLMfc8:debugRopCq,3,1,0,0,0
12,5794,0,1714508813047,0,C000000111111,6,2,6,6,4,0,TEST,1719746,1714508746715,10,1,C110010000000,3,human,debugLMfc8:debugRopCq,1,1,0,0,0
12,38828,1,1714508851876,0,C110010000000,7,3,3,6,4,3,TEST,1719746,1714508746715,10,1,C110010000000,3,human,debugLMfc8:debugRopCq,1,1,1,0,1
12,0,0,1714508854029,4,C000000001111,1,0,4,6,4,2,TEST,1719746,1714508746715,10,2,C000000100110,3,model,debugLMfc8:debugRopCq,220,48,1,1,1
12,10,0,1714508854039,4,C000000001100,2,0,2,6,4,1,TEST,1719746,1714508746715,10,2,C000000100110,3,model,debugLMfc8:debugRopCq,48,32,1,0,1
12,11,0,1714508854050,4,C000000011000,3,0,2,6,4,0,TEST,1719746,1714508746715,10,2,C000000100110,3,model,debugLMfc8:debugRopCq,32,14,0,0,0
12,10,0,1714508854060,4,C000111100000,4,0,4,6,4,1,TEST,1719746,1714508746715,10,2,C000000100110,3,model,debugLMfc8:debugRopCq,14,8,0,1,1
12,26944,0,1714508881004,4,C111111000000,5,1,6,6,4,0,TEST,1719746,1714508746715,10,2,C000000100110,3,human,debugLMfc8:debugRopCq,8,2,0,0,0
12,14408,1,1714508895413,4,C000000100110,6,2,3,6,4,3,TEST,1719746,1714508746715,10,2,C000000100110,3,human,debugLMfc8:debugRopCq,2,1,0,0,0
12,0,0,1714508896685,4,C000000000111,1,0,3,6,1,0,TEST,1719746,1714508746715,10,3,C010010001000,3,model,debugLMfc8:debugRopCq,220,84,1,1,1
12,5349,0,1714508902034,4,C111111000000,2,1,6,6,1,2,TEST,1719746,1714508746715,10,3,C010010001000,3,human,debugLMfc8:debugRopCq,84,45,0,1,1
12,3411,0,1714508905446,4,C000000111000,3,2,3,6,1,1,TEST,1719746,1714508746715,10,3,C010010001000,3,human,debugLMfc8:debugRopCq,45,45,0,1,1
12,8437,0,1714508913884,4,C000000001000,4,3,1,6,1,1,TEST,1719746,1714508746715,10,3,C010010001000,3,human,debugLMfc8:debugRopCq,45,15,1,0,1
12,8298,0,1714508922183,4,C101010000000,5,4,3,6,1,1,TEST,1719746,1714508746715,10,3,C010010001000,3,human,debugLMfc8:debugRopCq,15,9,1,0,1
12,4853,0,1714508927037,4,C010101000000,6,5,3,6,1,1,TEST,1719746,1714508746715,10,3,C010010001000,3,human,debugLMfc8:debugRopCq,9,9,1,0,1
12,14510,0,1714508941548,4,C000011001000,7,6,3,6,1,2,TEST,1719746,1714508746715,10,3,C010010001000,3,human,debugLMfc8:debugRopCq,9,4,0,0,0
12,6722,0,1714508948271,4,C001001001000,8,7,3,6,1,1,TEST,1719746,1714508746715,10,3,C010010001000,3,human,debugLMfc8:debugRopCq,4,2,0,0,0
12,9558,0,1714508957829,4,C000110001000,9,8,3,6,1,2,TEST,1719746,1714508746715,10,3,C010010001000,3,human,debugLMfc8:debugRopCq,2,1,0,0,0
12,3240,1,1714508961070,4,C010010001000,10,9,3,6,1,3,TEST,1719746,1714508746715,10,3,C010010001000,3,human,debugLMfc8:debugRopCq,1,1,0,0,0
12,4227,0,1714508966215,4,C111111000000,1,1,6,6,0,1,TEST,1719746,1714508746715,10,4,C000001101000,3,human,debugLMfc8:debugRopCq,220,90,1,1,1
12,2890,0,1714508969106,4,C000000111111,2,2,6,6,0,2,TEST,1719746,1714508746715,10,4,C000001101000,3,human,debugLMfc8:debugRopCq,90,90,0,1,1
12,6821,0,1714508975928,4,C101010101010,3,3,6,6,0,2,TEST,1719746,1714508746715,10,4,C000001101000,3,human,debugLMfc8:debugRopCq,90,36,0,0,0
12,5318,0,1714508981247,4,C010101010101,4,4,6,6,0,1,TEST,1719746,1714508746715,10,4,C000001101000,3,human,debugLMfc8:debugRopCq,36,36,0,0,0
12,9702,0,1714508990949,4,C101010000000,5,5,3,6,0,0,TEST,1719746,1714508746715,10,4,C000001101000,3,human,debugLMfc8:debugRopCq,36,9,1,0,1
12,6786,0,1714508997736,4,C000000101010,6,6,3,6,0,2,TEST,1719746,1714508746715,10,4,C000001101000,3,human,debugLMfc8:debugRopCq,9,9,1,0,1
12,2259,0,1714508999996,4,C000000001010,7,7,2,6,0,1,TEST,1719746,1714508746715,10,4,C000001101000,3,human,debugLMfc8:debugRopCq,9,6,1,0,1
12,2086,0,1714509002083,4,C000000101000,8,8,2,6,0,2,TEST,1719746,1714508746715,10,4,C000001101000,3,human,debugLMfc8:debugRopCq,6,3,1,0,1
12,13051,0,1714509015135,4,C010000101000,9,9,3,6,0,2,TEST,1719746,1714508746715,10,4,C000001101000,3,human,debugLMfc8:debugRopCq,3,2,0,0,0
12,3103,0,1714509018239,4,C000100101000,10,10,3,6,0,2,TEST,1719746,1714508746715,10,4,C000001101000,3,human,debugLMfc8:debugRopCq,2,1,0,0,0
12,3545,1,1714509021785,4,C000001101000,11,11,3,6,0,3,TEST,1719746,1714508746715,10,4,C000001101000,3,human,debugLMfc8:debugRopCq,1,1,0,0,0
12,1,0,1714509023074,0,C010111010001,1,0,6,6,1,2,TEST,1719746,1714508746715,10,5,C001011000000,3,model,debugLMfc8:debugRopCq,220,90,1,1,1
12,8415,0,1714509031489,0,C111111000000,2,1,6,6,1,3,TEST,1719746,1714508746715,10,5,C001011000000,3,human,debugLMfc8:debugRopCq,90,12,0,0,0
12,5144,0,1714509036634,0,C101010000000,3,2,3,6,1,2,TEST,1719746,1714508746715,10,5,C001011000000,3,human,debugLMfc8:debugRopCq,12,6,1,0,1
12,3106,0,1714509039741,0,C111000000000,4,3,3,6,1,1,TEST,1719746,1714508746715,10,5,C001011000000,3,human,debugLMfc8:debugRopCq,6,4,1,0,1
12,6510,0,1714509046252,0,C001010000000,5,4,2,6,1,2,TEST,1719746,1714508746715,10,5,C001011000000,3,human,debugLMfc8:debugRopCq,4,2,1,0,1
12,2094,0,1714509048346,0,C001110000000,6,5,3,6,1,2,TEST,1719746,1714508746715,10,5,C001011000000,3,human,debugLMfc8:debugRopCq,2,1,1,0,1
12,2001,1,1714509050348,0,C001011000000,7,6,3,6,1,3,TEST,1719746,1714508746715,10,5,C001011000000,3,human,debugLMfc8:debugRopCq,1,1,1,0,1
12,0,0,1714509051076,4,C000000000111,1,0,3,6,1,1,TEST,1719746,1714508746715,10,6,C000011000010,3,model,debugLMfc8:debugRopCq,220,108,1,1,1
12,3170,0,1714509054246,4,C111111000000,2,1,6,6,1,2,TEST,1719746,1714508746715,10,6,C000011000010,3,human,debugLMfc8:debugRopCq,108,45,0,1,1
12,2766,0,1714509057012,4,C000000000010,3,2,1,6,1,1,TEST,1719746,1714508746715,10,6,C000011000010,3,human,debugLMfc8:debugRopCq,45,15,1,0,1
12,3355,0,1714509060367,4,C000001000010,4,3,2,6,1,2,TEST,1719746,1714508746715,10,6,C000011000010,3,human,debugLMfc8:debugRopCq,15,5,0,0,0
12,6508,0,1714509066875,4,C100001000010,5,4,3,6,1,2,TEST,1719746,1714508746715,10,6,C000011000010,3,human,debugLMfc8:debugRopCq,5,4,0,0,0
12,2810,0,1714509069685,4,C010001000010,6,5,3,6,1,2,TEST,1719746,1714508746715,10,6,C000011000010,3,human,debugLMfc8:debugRopCq,4,3,0,0,0
12,2245,0,1714509071931,4,C001001000010,7,6,3,6,1,2,TEST,1719746,1714508746715,10,6,C000011000010,3,human,debugLMfc8:debugRopCq,3,2,0,0,0
12,2491,0,1714509074422,4,C000101000010,8,7,3,6,1,2,TEST,1719746,1714508746715,10,6,C000011000010,3,human,debugLMfc8:debugRopCq,2,1,0,0,0
12,2279,1,1714509076702,4,C000011000010,9,8,3,6,1,3,TEST,1719746,1714508746715,10,6,C000011000010,3,human,debugLMfc8:debugRopCq,1,1,0,0,0
12,0,0,1714509077415,4,C000000000111,1,0,3,6,1,1,TEST,1719746,1714508746715,10,7,C001100000001,3,model,debugLMfc8:debugRopCq,220,108,1,1,1
12,4880,0,1714509082295,4,C111111000000,2,1,6,6,1,2,TEST,1719746,1714508746715,10,7,C001100000001,3,human,debugLMfc8:debugRopCq,108,45,0,1,1
12,2274,0,1714509084569,4,C000000111000,3,2,3,6,1,0,TEST,1719746,1714508746715,10,7,C001100000001,3,human,debugLMfc8:debugRopCq,45,45,0,1,1
12,2626,0,1714509087195,4,C000000000001,4,3,1,6,1,1,TEST,1719746,1714508746715,10,7,C001100000001,3,human,debugLMfc8:debugRopCq,45,15,1,0,1
12,2797,0,1714509089992,4,C000011000000,5,4,2,6,1,0,TEST,1719746,1714508746715,10,7,C001100000001,3,human,debugLMfc8:debugRopCq,15,6,1,0,1
12,5159,1,1714509095151,4,C001100000001,6,5,3,6,1,3,TEST,1719746,1714508746715,10,7,C001100000001,3,human,debugLMfc8:debugRopCq,6,1,0,0,0
12,0,0,1714509095925,0,C100110101010,1,0,6,6,2,2,TEST,1719746,1714508746715,10,8,C000101001000,3,model,debugLMfc8:debugRopCq,220,90,1,1,1
12,10,0,1714509095935,0,C010100110011,2,0,6,6,2,1,TEST,1719746,1714508746715,10,8,C000101001000,3,model,debugLMfc8:debugRopCq,90,36,0,0,0
12,6940,0,1714509102875,0,C111111000000,3,1,6,6,2,2,TEST,1719746,1714508746715,10,8,C000101001000,3,human,debugLMfc8:debugRopCq,36,16,0,0,0
12,2697,0,1714509105573,0,C000000111111,4,2,6,6,2,1,TEST,1719746,1714508746715,10,8,C000101001000,3,human,debugLMfc8:debugRopCq,16,16,0,0,0
12,18378,0,1714509123952,0,C000100001000,5,3,2,6,2,2,TEST,1719746,1714508746715,10,8,C000101001000,3,human,debugLMfc8:debugRopCq,16,2,1,0,1
12,10865,1,1714509134817,0,C000101001000,6,4,3,6,2,3,TEST,1719746,1714508746715,10,8,C000101001000,3,human,debugLMfc8:debugRopCq,2,1,0,0,0
12,0,0,1714509136097,0,C110111000010,1,0,6,6,2,2,TEST,1719746,1714508746715,10,9,C000110000001,3,model,debugLMfc8:debugRopCq,220,90,1,1,1
12,9,0,1714509136106,0,C000011010111,2,0,6,6,2,2,TEST,1719746,1714508746715,10,9,C000110000001,3,model,debugLMfc8:debugRopCq,90,36,0,0,0
12,6302,0,1714509142408,0,C111111000000,3,1,6,6,2,2,TEST,1719746,1714508746715,10,9,C000110000001,3,human,debugLMfc8:debugRopCq,36,22,0,0,0
12,13034,0,1714509155443,0,C000000000010,4,2,1,6,2,0,TEST,1719746,1714508746715,10,9,C000110000001,3,human,debugLMfc8:debugRopCq,22,20,1,0,1
12,12073,0,1714509167517,0,C000011000000,5,3,2,6,2,1,TEST,1719746,1714508746715,10,9,C000110000001,3,human,debugLMfc8:debugRopCq,20,18,1,0,1
12,3691,0,1714509171209,0,C000000000001,6,4,1,6,2,1,TEST,1719746,1714508746715,10,9,C000110000001,3,human,debugLMfc8:debugRopCq,18,6,1,0,1
12,3334,0,1714509174544,0,C000001000001,7,5,2,6,2,1,TEST,1719746,1714508746715,10,9,C000110000001,3,human,debugLMfc8:debugRopCq,6,3,1,0,1
12,2088,0,1714509176633,0,C000010000001,8,6,2,6,2,2,TEST,1719746,1714508746715,10,9,C000110000001,3,human,debugLMfc8:debugRopCq,3,3,1,0,1
12,3116,1,1714509179750,0,C000110000001,9,7,3,6,2,3,TEST,1719746,1714508746715,10,9,C000110000001,3,human,debugLMfc8:debugRopCq,3,1,0,0,0
12,1,0,1714509180408,0,C101110100010,1,0,6,6,3,1,TEST,1719746,1714508746715,10,10,C000000010011,3,model,debugLMfc8:debugRopCq,220,90,1,1,1
12,10,0,1714509180418,0,C000111111000,2,0,6,6,3,1,TEST,1719746,1714508746715,10,10,C000000010011,3,model,debugLMfc8:debugRopCq,90,36,0,0,0
12,9,0,1714509180427,0,C001000011110,3,0,5,6,3,2,TEST,1719746,1714508746715,10,10,C000000010011,3,model,debugLMfc8:debugRopCq,36,12,0,0,0
12,8102,0,1714509188529,0,C111111000000,4,1,6,6,3,0,TEST,1719746,1714508746715,10,10,C000000010011,3,human,debugLMfc8:debugRopCq,12,2,0,0,0
12,9749,0,1714509198278,0,C000000111000,5,2,3,6,3,1,TEST,1719746,1714508746715,10,10,C000000010011,3,human,debugLMfc8:debugRopCq,2,2,1,0,1
12,2002,0,1714509200281,0,C000000101100,6,3,3,6,3,0,TEST,1719746,1714508746715,10,10,C000000010011,3,human,debugLMfc8:debugRopCq,2,1,0,0,0
12,2939,0,1714509203221,0,C000000011100,7,4,3,6,3,1,TEST,1719746,1714508746715,10,10,C000000010011,3,human,debugLMfc8:debugRopCq,1,1,1,0,1
12,2155,0,1714509205377,0,C000000011010,8,5,3,6,3,2,TEST,1719746,1714508746715,10,10,C000000010011,3,human,debugLMfc8:debugRopCq,1,1,1,0,1
12,3175,0,1714509208553,0,C000000010010,9,6,2,6,3,2,TEST,1719746,1714508746715,10,10,C000000010011,3,human,debugLMfc8:debugRopCq,1,1,1,0,1
12,1841,0,1714509210395,0,C000000010110,10,7,3,6,3,2,TEST,1719746,1714508746715,10,10,C000000010011,3,human,debugLMfc8:debugRopCq,1,1,1,0,1
12,2066,1,1714509212462,0,C000000010011,11,8,3,6,3,3,TEST,1719746,1714508746715,10,10,C000000010011,3,human,debugLMfc8:debugRopCq,1,1,0,0,0
12,2,0,1714508843194,4,C000000000111,1,0,3,6,4,0,TEST,6953450,1714508812332,10,1,C100001100000,3,model,debugU5Spk:debugFoJlV,220,84,1,1,1
12,4,0,1714508843199,4,C000111000000,2,0,3,6,4,1,TEST,6953450,1714508812332,10,1,C100001100000,3,model,debugU5Spk:debugFoJlV,84,45,0,1,1
12,16,0,1714508843216,4,C000000111000,3,0,3,6,4,1,TEST,6953450,1714508812332,10,1,C100001100000,3,model,debugU5Spk:debugFoJlV,45,27,0,1,1
12,17,0,1714508843233,4,C000100100000,4,0,2,6,4,1,TEST,6953450,1714508812332,10,1,C100001100000,3,model,debugU5Spk:debugFoJlV,27,12,0,0,0
12,17284,0,1714508860517,4,C111100100000,5,1,5,6,4,2,TEST,6953450,1714508812332,10,1,C100001100000,3,human,debugU5Spk:debugFoJlV,12,12,0,0,0
12,28284,0,1714508888805,4,C000011010000,6,2,3,6,4,1,TEST,6953450,1714508812332,10,1,C100001100000,3,human,debugU5Spk:debugFoJlV,12,9,0,0,0
12,7550,0,1714508896359,4,C001100010000,7,3,3,6,4,0,TEST,6953450,1714508812332,10,1,C100001100000,3,human,debugU5Spk:debugFoJlV,9,4,0,0,0
12,14941,0,1714508911304,4,C010001100000,8,4,3,6,4,2,TEST,6953450,1714508812332,10,1,C100001100000,3,human,debugU5Spk:debugFoJlV,4,2,0,0,0
12,4863,1,1714508916170,4,C100001100000,9,5,3,6,4,3,TEST,6953450,1714508812332,10,1,C100001100000,3,human,debugU5Spk:debugFoJlV,2,1,0,0,0
12,3,0,1714508919922,4,C000000000111,1,0,3,6,4,0,TEST,6953450,1714508812332,10,2,C001011000000,3,model,debugU5Spk:debugFoJlV,220,84,1,1,1
12,16,0,1714508919939,4,C000111000000,2,0,3,6,4,2,TEST,6953450,1714508812332,10,2,C001011000000,3,model,debugU5Spk:debugFoJlV,84,18,0,1,1
12,17,0,1714508919957,4,C111000000000,3,0,3,6,4,1,TEST,6953450,1714508812332,10,2,C001011000000,3,model,debugU5Spk:debugFoJlV,18,9,0,1,1
12,18,0,1714508919975,4,C001001000000,4,0,2,6,4,2,TEST,6953450,1714508812332,10,2,C001011000000,3,model,debugU5Spk:debugFoJlV,9,2,0,0,0
12,8420,1,1714508928395,4,C001011000000,5,1,3,6,4,3,TEST,6953450,1714508812332,10,2,C001011000000,3,human,debugU5Spk:debugFoJlV,2,1,0,0,0
12,2,0,1714508929479,0,C101011100001,1,0,6,6,4,2,TEST,6953450,1714508812332,10,3,C001100000001,3,model,debugU5Spk:debugFoJlV,220,90,1,1,1
12,10,0,1714508929490,0,C011011000110,2,0,6,6,4,1,TEST,6953450,1714508812332,10,3,C001100000001,3,model,debugU5Spk:debugFoJlV,90,36,0,0,0
12,16,0,1714508929506,0,C101110010000,3,0,5,6,4,2,TEST,6953450,1714508812332,10,3,C001100000001,3,model,debugU5Spk:debugFoJlV,36,12,0,0,0
12,16,0,1714508929522,0,C110111001000,4,0,6,6,4,1,TEST,6953450,1714508812332,10,3,C001100000001,3,model,debugU5Spk:debugFoJlV,12,4,0,0,0
12,44922,0,1714508974445,0,C001010100000,5,1,3,6,4,1,TEST,6953450,1714508812332,10,3,C001100000001,3,human,debugU5Spk:debugFoJlV,4,2,1,0,1
12,4771,0,1714508979217,0,C001000000000,6,2,1,6,4,1,TEST,6953450,1714508812332,10,3,C001100000001,3,human,debugU5Spk:debugFoJlV,2,1,1,0,1
12,11979,0,1714508991198,0,C011001000000,7,3,3,6,4,1,TEST,6953450,1714508812332,10,3,C001100000001,3,human,debugU5Spk:debugFoJlV,1,1,1,0,1
12,17191,0,1714509008391,0,C101000000000,8,4,2,6,4,1,TEST,6953450,1714508812332,10,3,C001100000001,3,human,debugU5Spk:debugFoJlV,1,1,1,0,1
12,59403,0,1714509067798,0,C001100010000,9,5,3,6,4,2,TEST,6953450,1714508812332,10,3,C001100000001,3,human,debugU5Spk:debugFoJlV,1,1,1,0,1
12,3871,0,1714509071671,0,C001000010000,10,6,2,6,4,1,TEST,6953450,1714508812332,10,3,C001100000001,3,human,debugU5Spk:debugFoJlV,1,1,1,0,1
12,3947,0,1714509075620,0,C001000000000,11,7,1,6,4,1,TEST,6953450,1714508812332,10,3,C001100000001,3,human,debugU5Spk:debugFoJlV,1,1,1,0,1
12,8229,1,1714509083853,0,C001100000001,12,8,3,6,4,3,TEST,6953450,1714508812332,10,3,C001100000001,3,human,debugU5Spk:debugFoJlV,1,1,0,0,0
12,4818,0,1714509091189,4,C111000000000,1,1,3,6,0,0,TEST,6953450,1714508812332,10,4,C000001100010,3,human,debugU5Spk:debugFoJlV,220,84,1,1,1
12,3685,0,1714509094876,4,C000111000000,2,2,3,6,0,1,TEST,6953450,1714508812332,10,4,C000001100010,3,human,debugU5Spk:debugFoJlV,84,45,0,1,1
12,3199,0,1714509098077,4,C000000111000,3,3,3,6,0,1,TEST,6953450,1714508812332,10,4,C000001100010,3,human,debugU5Spk:debugFoJlV,45,27,0,1,1
12,3249,0,1714509101328,4,C000000000111,4,4,3,6,0,1,TEST,6953450,1714508812332,10,4,C000001100010,3,human,debugU5Spk:debugFoJlV,27,27,0,1,1
12,5393,0,1714509106723,4,C000010010001,5,5,3,6,0,0,TEST,6953450,1714508812332,10,4,C000001100010,3,human,debugU5Spk:debugFoJlV,27,8,0,0,0
12,5635,0,1714509112360,4,C000001001010,6,6,3,6,0,2,TEST,6953450,1714508812332,10,4,C000001100010,3,human,debugU5Spk:debugFoJlV,8,3,0,0,0
12,4113,0,1714509116475,4,C000010001010,7,7,3,6,0,1,TEST,6953450,1714508812332,10,4,C000001100010,3,human,debugU5Spk:debugFoJlV,3,2,0,0,0
12,12565,0,1714509129042,4,C000001001100,8,8,3,6,0,1,TEST,6953450,1714508812332,10,4,C000001100010,3,human,debugU5Spk:debugFoJlV,2,1,0,0,0
12,7787,0,1714509136831,4,C000001100001,9,9,3,6,0,2,TEST,6953450,1714508812332,10,4,C000001100010,3,human,debugU5Spk:debugFoJlV,1,1,0,0,0
12,8978,0,1714509145812,4,C000001010001,10,10,3,6,0,1,TEST,6953450,1714508812332,10,4,C000001100010,3,human,debugU5Spk:debugFoJlV,1,1,0,0,0
12,8786,1,1714509154600,4,C000001100010,11,11,3,6,0,3,TEST,6953450,1714508812332,10,4,C000001100010,3,human,debugU5Spk:debugFoJlV,1,1,0,0,0
12,4354,0,1714509160088,4,C111000000000,1,1,3,6,0,0,TEST,6953450,1714508812332,10,5,C000101001000,3,human,debugU5Spk:debugFoJlV,220,84,1,1,1
12,3035,0,1714509163124,4,C000111000000,2,2,3,6,0,2,TEST,6953450,1714508812332,10,5,C000101001000,3,human,debugU5Spk:debugFoJlV,84,18,0,1,1
12,3216,0,1714509166344,4,C000000111000,3,3,3,6,0,1,TEST,6953450,1714508812332,10,5,C000101001000,3,human,debugU5Spk:debugFoJlV,18,9,0,1,1
12,3949,0,1714509170296,4,C000110100000,4,4,3,6,0,1,TEST,6953450,1714508812332,10,5,C000101001000,3,human,debugU5Spk:debugFoJlV,9,4,0,0,0
12,4170,0,1714509174469,4,C000011010000,5,5,3,6,0,1,TEST,6953450,1714508812332,10,5,C000101001000,3,human,debugU5Spk:debugFoJlV,4,1,0,0,0
12,6547,0,1714509181020,4,C000110001000,6,6,3,6,0,2,TEST,6953450,1714508812332,10,5,C000101001000,3,human,debugU5Spk:debugFoJlV,1,1,0,0,0
12,6268,1,1714509187291,4,C000101001000,7,7,3,6,0,3,TEST,6953450,1714508812332,10,5,C000101001000,3,human,debugU5Spk:debugFoJlV,1,1,0,0,0
12,1,0,1714509188381,0,C000011100111,1,0,6,6,1,3,TEST,6953450,1714508812332,10,6,C000000100110,3,model,debugU5Spk:debugFoJlV,220,20,1,1,1
12,9151,0,1714509197533,0,C000011100000,2,1,3,6,1,1,TEST,6953450,1714508812332,10,6,C000000100110,3,human,debugU5Spk:debugFoJlV,20,9,1,0,1
12,3961,0,1714509201497,0,C000001000101,3,2,3,6,1,1,TEST,6953450,1714508812332,10,6,C000000100110,3,human,debugU5Spk:debugFoJlV,9,4,1,0,1
12,4505,0,1714509206005,0,C000010100010,4,3,3,6,1,2,TEST,6953450,1714508812332,10,6,C000000100110,3,human,debugU5Spk:debugFoJlV,4,4,1,0,1
12,11442,1,1714509217449,0,C000000100110,5,4,3,6,1,3,TEST,6953450,1714508812332,10,6,C000000100110,3,human,debugU5Spk:debugFoJlV,4,1,1,0,1
12,3,0,1714509218392,0,C001100101101,1,0,6,6,4,0,TEST,6953450,1714508812332,10,7,C000011000010,3,model,debugU5Spk:debugFoJlV,220,20,1,1,1
12,9,0,1714509218401,0,C000011010000,2,0,3,6,4,2,TEST,6953450,1714508812332,10,7,C000011000010,3,model,debugU5Spk:debugFoJlV,20,9,0,1,1
12,14,0,1714509218416,0,C100011000000,3,0,3,6,4,2,TEST,6953450,1714508812332,10,7,C000011000010,3,model,debugU5Spk:debugFoJlV,9,4,0,0,0
12,21,0,1714509218438,0,C010011000000,4,0,3,6,4,2,TEST,6953450,1714508812332,10,7,C000011000010,3,model,debugU5Spk:debugFoJlV,4,1,0,0,0
12,16775,1,1714509235214,0,C000011000010,5,1,3,6,4,3,TEST,6953450,1714508812332,10,7,C000011000010,3,human,debugU5Spk:debugFoJlV,1,1,0,0,0
12,2,0,1714509236164,0,C011100010110,1,0,6,6,2,0,TEST,6953450,1714508812332,10,8,C000001101000,3,model,debugU5Spk:debugFoJlV,220,20,1,1,1
12,11,0,1714509236176,0,C000010101000,2,0,3,6,2,2,TEST,6953450,1714508812332,10,8,C000001101000,3,model,debugU5Spk:debugFoJlV,20,9,0,1,1
12,9122,0,1714509245299,0,C000010100000,3,1,2,6,2,1,TEST,6953450,1714508812332,10,8,C000001101000,3,human,debugU5Spk:debugFoJlV,9,6,1,0,1
12,3450,0,1714509248752,0,C000010001000,4,2,2,6,2,1,TEST,6953450,1714508812332,10,8,C000001101000,3,human,debugU5Spk:debugFoJlV,6,3,1,0,1
12,2767,0,1714509251523,0,C000000101000,5,3,2,6,2,2,TEST,6953450,1714508812332,10,8,C000001101000,3,human,debugU5Spk:debugFoJlV,3,3,1,0,1
12,5220,0,1714509256746,0,C000000101001,6,4,3,6,2,2,TEST,6953450,1714508812332,10,8,C000001101000,3,human,debugU5Spk:debugFoJlV,3,2,0,0,0
12,4028,0,1714509260778,0,C100000101000,7,5,3,6,2,2,TEST,6953450,1714508812332,10,8,C000001101000,3,human,debugU5Spk:debugFoJlV,2,1,0,0,0
12,5498,0,1714509266279,0,C000010101000,8,6,3,6,2,2,TEST,6953450,1714508812332,10,8,C000001101000,3,human,debugU5Spk:debugFoJlV,1,1,1,0,1
12,14685,0,1714509280967,0,C000010101000,9,7,3,6,2,2,TEST,6953450,1714508812332,10,8,C000001101000,3,human,debugU5Spk:debugFoJlV,1,1,1,0,1
12,6800,0,1714509287769,0,C000000101000,10,8,2,6,2,2,TEST,6953450,1714508812332,10,8,C000001101000,3,human,debugU5Spk:debugFoJlV,1,1,1,0,1
12,15908,1,1714509303679,0,C000001101000,11,9,3,6,2,3,TEST,6953450,1714508812332,10,8,C000001101000,3,human,debugU5Spk:debugFoJlV,1,1,0,0,0
12,1,0,1714509304442,0,C100001101101,1,0,6,6,3,2,TEST,6953450,1714508812332,10,9,C100010001000,3,model,debugU5Spk:debugFoJlV,220,90,1,1,1
12,14,0,1714509304457,0,C100110000111,2,0,6,6,3,2,TEST,6953450,1714508812332,10,9,C100010001000,3,model,debugU5Spk:debugFoJlV,90,36,0,0,0
12,16,0,1714509304474,0,C000011100110,3,0,5,6,3,1,TEST,6953450,1714508812332,10,9,C100010001000,3,model,debugU5Spk:debugFoJlV,36,15,0,0,0
12,9598,0,1714509314072,0,C100000000000,4,1,1,6,3,1,TEST,6953450,1714508812332,10,9,C100010001000,3,human,debugU5Spk:debugFoJlV,15,7,1,0,1
12,8599,0,1714509322673,0,C000111000000,5,2,3,6,3,1,TEST,6953450,1714508812332,10,9,C100010001000,3,human,debugU5Spk:debugFoJlV,7,2,0,0,0
12,15198,0,1714509337875,0,C100010000001,6,3,3,6,3,2,TEST,6953450,1714508812332,10,9,C100010001000,3,human,debugU5Spk:debugFoJlV,2,1,1,0,1
12,6363,0,1714509344240,0,C100001000100,7,4,3,6,3,1,TEST,6953450,1714508812332,10,9,C100010001000,3,human,debugU5Spk:debugFoJlV,1,1,1,0,1
12,3548,0,1714509347792,0,C100010000000,8,5,2,6,3,2,TEST,6953450,1714508812332,10,9,C100010001000,3,human,debugU5Spk:debugFoJlV,1,1,1,0,1
12,17043,0,1714509364837,0,C100010010000,9,6,3,6,3,2,TEST,6953450,1714508812332,10,9,C100010001000,3,human,debugU5Spk:debugFoJlV,1,1,0,0,0
12,4511,1,1714509369351,0,C100010001000,10,7,3,6,3,3,TEST,6953450,1714508812332,10,9,C100010001000,3,human,debugU5Spk:debugFoJlV,1,1,0,0,0
12,2,0,1714509370228,4,C000000000111,1,0,3,6,4,2,TEST,6953450,1714508812332,10,10,C000000010011,3,model,debugU5Spk:debugFoJlV,220,27,1,1,1
12,29,0,1714509370258,4,C000000111000,2,0,3,6,4,1,TEST,6953450,1714508812332,10,10,C000000010011,3,model,debugU5Spk:debugFoJlV,27,9,0,1,1
12,14,0,1714509370273,4,C000000010100,3,0,2,6,4,1,TEST,6953450,1714508812332,10,10,C000000010011,3,model,debugU5Spk:debugFoJlV,9,5,0,0,0
12,16,0,1714509370290,4,C000000100100,4,0,2,6,4,0,TEST,6953450,1714508812332,10,10,C000000010011,3,model,debugU5Spk:debugFoJlV,5,1,0,0,0
12,11686,0,1714509381978,4,C000000001110,5,1,3,6,4,1,TEST,6953450,1714508812332,10,10,C000000010011,3,human,debugU5Spk:debugFoJlV,1,1,0,0,0
12,4140,0,1714509386121,4,C000000001000,6,2,1,6,4,0,TEST,6953450,1714508812332,10,10,C000000010011,3,human,debugU5Spk:debugFoJlV,1,1,1,0,1
12,5404,0,1714509391528,4,C000000100100,7,3,2,6,4,0,TEST,6953450,1714508812332,10,10,C000000010011,3,human,debugU5Spk:debugFoJlV,1,1,1,0,1
12,6879,0,1714509398411,4,C000000001010,8,4,2,6,4,1,TEST,6953450,1714508812332,10,10,C000000010011,3,human,debugU5Spk:debugFoJlV,1,1,1,0,1
12,7077,0,1714509405491,4,C000000010010,9,5,2,6,4,2,TEST,6953450,1714508812332,10,10,C000000010011,3,human,debugU5Spk:debugFoJlV,1,1,0,0,0
12,5461,0,1714509410955,4,C000111000000,10,6,3,6,4,0,TEST,6953450,1714508812332,10,10,C000000010011,3,human,debugU5Spk:debugFoJlV,1,1,0,1,1
12,3061,0,1714509414021,4,C011000000000,11,7,2,6,4,0,TEST,6953450,1714508812332,10,10,C000000010011,3,human,debugU5Spk:debugFoJlV,1,1,0,1,1
12,4910,0,1714509418935,4,C100000010010,12,8,3,6,4,2,TEST,6953450,1714508812332,10,10,C000000010011,3,human,debugU5Spk:debugFoJlV,1,1,0,0,0
12,14527,1,1714509433467,4,C000000010011,13,9,3,6,4,3,TEST,6953450,1714508812332,10,10,C000000010011,3,human,debugU5Spk:debugFoJlV,1,1,0,0,0
12,1,0,1714508861258,0,C010001100111,1,0,6,6,2,1,TEST,6587552,1714508818884,10,1,C011000001000,3,model,debugyHDe6:debugz67pg,220,90,1,1,1
12,5,0,1714508861263,0,C100000111011,2,0,6,6,2,1,TEST,6587552,1714508818884,10,1,C011000001000,3,model,debugyHDe6:debugz67pg,90,36,0,0,0
12,17536,0,1714508878799,0,C001000000110,3,1,3,6,2,1,TEST,6587552,1714508818884,10,1,C011000001000,3,human,debugyHDe6:debugz67pg,36,17,0,0,0
12,7726,0,1714508886527,0,C000010001010,4,2,3,6,2,1,TEST,6587552,1714508818884,10,1,C011000001000,3,human,debugyHDe6:debugz67pg,17,7,0,0,0
12,7912,0,1714508894441,0,C000000100011,5,3,3,6,2,0,TEST,6587552,1714508818884,10,1,C011000001000,3,human,debugyHDe6:debugz67pg,7,5,1,0,1
12,13958,0,1714508908400,0,C000101000001,6,4,3,6,2,0,TEST,6587552,1714508818884,10,1,C011000001000,3,human,debugyHDe6:debugz67pg,5,3,0,0,0
12,6295,0,1714508914696,0,C001100000100,7,5,3,6,2,1,TEST,6587552,1714508818884,10,1,C011000001000,3,human,debugyHDe6:debugz67pg,3,3,0,0,0
12,6366,0,1714508921064,0,C000001100100,8,6,3,6,2,0,TEST,6587552,1714508818884,10,1,C011000001000,3,human,debugyHDe6:debugz67pg,3,1,1,0,1
12,7135,0,1714508928200,0,C001110000000,9,7,3,6,2,1,TEST,6587552,1714508818884,10,1,C011000001000,3,human,debugyHDe6:debugz67pg,1,1,0,0,0
12,3855,0,1714508932056,0,C001000110000,10,8,3,6,2,1,TEST,6587552,1714508818884,10,1,C011000001000,3,human,debugyHDe6:debugz67pg,1,1,0,0,0
12,2454,0,1714508934511,0,C011100000000,11,9,3,6,2,2,TEST,6587552,1714508818884,10,1,C011000001000,3,human,debugyHDe6:debugz67pg,1,1,0,0,0
12,2318,0,1714508936831,0,C111000000000,12,10,3,6,2,2,TEST,6587552,1714508818884,10,1,C011000001000,3,human,debugyHDe6:debugz67pg,1,1,0,0,0
12,3180,0,1714508940013,0,C011000000001,13,11,3,6,2,2,TEST,6587552,1714508818884,10,1,C011000001000,3,human,debugyHDe6:debugz67pg,1,1,0,0,0
12,2200,0,1714508942216,0,C011001000000,14,12,3,6,2,2,TEST,6587552,1714508818884,10,1,C011000001000,3,human,debugyHDe6:debugz67pg,1,1,0,0,0
12,2335,0,1714508944552,0,C011010000000,15,13,3,6,2,2,TEST,6587552,1714508818884,10,1,C011000001000,3,human,debugyHDe6:debugz67pg,1,1,0,0,0
12,2261,0,1714508946815,0,C011000100000,16,14,3,6,2,2,TEST,6587552,1714508818884,10,1,C011000001000,3,human,debugyHDe6:debugz67pg,1,1,0,0,0
12,2263,0,1714508949080,0,C011000010000,17,15,3,6,2,2,TEST,6587552,1714508818884,10,1,C011000001000,3,human,debugyHDe6:debugz67pg,1,1,0,0,0
12,7346,0,1714508964831,0,C000000111111,1,1,6,6,0,1,TEST,6587552,1714508818884,10,2,C011000000010,3,human,debugyHDe6:debugz67pg,220,90,1,1,1
12,4911,0,1714508969743,0,C111110000001,2,2,6,6,0,2,TEST,6587552,1714508818884,10,2,C011000000010,3,human,debugyHDe6:debugz67pg,90,55,0,0,0
12,3848,0,1714508973592,0,C000011111001,3,3,6,6,0,0,TEST,6587552,1714508818884,10,2,C011000000010,3,human,debugyHDe6:debugz67pg,55,12,0,0,0
12,8126,0,1714508981719,0,C011111000001,4,4,6,6,0,2,TEST,6587552,1714508818884,10,2,C011000000010,3,human,debugyHDe6:debugz67pg,12,6,0,0,0
12,6374,0,1714508988094,0,C000010111101,5,5,6,6,0,0,TEST,6587552,1714508818884,10,2,C011000000010,3,human,debugyHDe6:debugz67pg,6,3,0,0,0
12,5554,0,1714508993649,0,C111110000001,6,6,6,6,0,2,TEST,6587552,1714508818884,10,2,C011000000010,3,human,debugyHDe6:debugz67pg,3,3,1,0,1
12,3565,0,1714508997215,0,C111011000001,7,7,6,6,0,2,TEST,6587552,1714508818884,10,2,C011000000010,3,human,debugyHDe6:debugz67pg,3,1,0,0,0
12,8413,0,1714509005630,0,C011001110001,8,8,6,6,0,2,TEST,6587552,1714508818884,10,2,C011000000010,3,human,debugyHDe6:debugz67pg,1,1,0,0,0
12,10583,0,1714509016215,0,C010000101111,9,9,6,6,0,2,TEST,6587552,1714508818884,10,2,C011000000010,3,human,debugyHDe6:debugz67pg,1,1,0,0,0
12,4631,0,1714509020847,0,C010011000111,10,10,6,6,0,2,TEST,6587552,1714508818884,10,2,C011000000010,3,human,debugyHDe6:debugz67pg,1,1,0,0,0
12,5054,0,1714509025902,0,C111001010001,11,11,6,6,0,2,TEST,6587552,1714508818884,10,2,C011000000010,3,human,debugyHDe6:debugz67pg,1,1,0,0,0
12,5777,0,1714509031680,0,C110011100001,12,12,6,6,0,1,TEST,6587552,1714508818884,10,2,C011000000010,3,human,debugyHDe6:debugz67pg,1,1,0,0,0
12,4645,0,1714509036327,0,C000101100111,13,13,6,6,0,1,TEST,6587552,1714508818884,10,2,C011000000010,3,human,debugyHDe6:debugz67pg,1,1,0,0,0
12,3878,0,1714509040206,0,C000011110101,14,14,6,6,0,0,TEST,6587552,1714508818884,10,2,C011000000010,3,human,debugyHDe6:debugz67pg,1,1,0,0,0
12,9608,0,1714509049815,0,C001100110110,15,15,6,6,0,2,TEST,6587552,1714508818884,10,2,C011000000010,3,human,debugyHDe6:debugz67pg,1,1,0,0,0
12,1,0,1714509051825,0,C001100101101,1,0,6,6,2,0,TEST,6587552,1714508818884,10,3,C000011000010,3,model,debugyHDe6:debugz67pg,220,20,1,1,1
12,9,0,1714509051834,0,C000011010000,2,0,3,6,2,2,TEST,6587552,1714508818884,10,3,C000011000010,3,model,debugyHDe6:debugz67pg,20,9,0,1,1
12,19148,0,1714509070982,0,C000011001111,3,1,6,6,2,3,TEST,6587552,1714508818884,10,3,C000011000010,3,human,debugyHDe6:debugz67pg,9,1,0,0,0
12,6247,0,1714509077230,0,C000011110110,4,2,6,6,2,3,TEST,6587552,1714508818884,10,3,C000011000010,3,human,debugyHDe6:debugz67pg,1,1,0,0,0
12,5264,0,1714509082495,0,C011011000110,5,3,6,6,2,3,TEST,6587552,1714508818884,10,3,C000011000010,3,human,debugyHDe6:debugz67pg,1,1,0,0,0
12,4198,0,1714509086694,0,C111011000100,6,4,6,6,2,2,TEST,6587552,1714508818884,10,3,C000011000010,3,human,debugyHDe6:debugz67pg,1,1,0,0,0
12,3975,0,1714509090670,0,C000011100111,7,5,6,6,2,3,TEST,6587552,1714508818884,10,3,C000011000010,3,human,debugyHDe6:debugz67pg,1,1,0,0,0
12,4911,0,1714509095582,0,C010111100001,8,6,6,6,2,2,TEST,6587552,1714508818884,10,3,C000011000010,3,human,debugyHDe6:debugz67pg,1,1,0,0,0
12,4102,0,1714509099685,0,C000011011101,9,7,6,6,2,2,TEST,6587552,1714508818884,10,3,C000011000010,3,human,debugyHDe6:debugz67pg,1,1,0,0,0
12,4207,0,1714509103893,0,C110011001100,10,8,6,6,2,2,TEST,6587552,1714508818884,10,3,C000011000010,3,human,debugyHDe6:debugz67pg,1,1,0,0,0
12,3712,0,1714509107607,0,C001111000011,11,9,6,6,2,3,TEST,6587552,1714508818884,10,3,C000011000010,3,human,debugyHDe6:debugz67pg,1,1,0,0,0
12,6014,0,1714509113622,0,C000011011101,12,10,6,6,2,2,TEST,6587552,1714508818884,10,3,C000011000010,3,human,debugyHDe6:debugz67pg,1,1,1,0,1
12,4071,0,1714509117694,0,C101111100000,13,11,6,6,2,2,TEST,6587552,1714508818884,10,3,C000011000010,3,human,debugyHDe6:debugz67pg,1,1,0,0,0
12,3896,0,1714509121591,0,C000011001111,14,12,6,6,2,3,TEST,6587552,1714508818884,10,3,C000011000010,3,human,debugyHDe6:debugz67pg,1,1,1,0,1
12,5637,0,1714509127229,0,C110011001100,15,13,6,6,2,2,TEST,6587552,1714508818884,10,3,C000011000010,3,human,debugyHDe6:debugz67pg,1,1,1,0,1
12,4142,0,1714509131373,0,C011111001000,16,14,6,6,2,2,TEST,6587552,1714508818884,10,3,C000011000010,3,human,debugyHDe6:debugz67pg,1,1,0,0,0
12,4199,0,1714509135574,0,C100011010011,17,15,6,6,2,3,TEST,6587552,1714508818884,10,3,C000011000010,3,human,debugyHDe6:debugz67pg,1,1,0,0,0
12,0,0,1714509137668,0,C101101010100,1,0,6,6,4,1,TEST,6587552,1714508818884,10,4,C000001100010,3,model,debugyHDe6:debugz67pg,220,90,1,1,1
12,8,0,1714509137676,0,C111000001110,2,0,6,6,4,1,TEST,6587552,1714508818884,10,4,C000001100010,3,model,debugyHDe6:debugz67pg,90,36,0,0,0
12,9,0,1714509137686,0,C010101000011,3,0,5,6,4,2,TEST,6587552,1714508818884,10,4,C000001100010,3,model,debugyHDe6:debugz67pg,36,12,0,0,0
12,9,0,1714509137696,0,C001011100010,4,0,5,6,4,3,TEST,6587552,1714508818884,10,4,C000001100010,3,model,debugyHDe6:debugz67pg,12,2,0,0,0
12,34374,0,1714509172070,0,C010011100011,5,1,6,6,4,3,TEST,6587552,1714508818884,10,4,C000001100010,3,human,debugyHDe6:debugz67pg,2,2,0,0,0
12,10094,0,1714509182166,0,C011101000011,6,2,6,6,4,2,TEST,6587552,1714508818884,10,4,C000001100010,3,human,debugyHDe6:debugz67pg,2,2,0,0,0
12,3582,0,1714509185749,0,C000001111110,7,3,6,6,4,3,TEST,6587552,1714508818884,10,4,C000001100010,3,human,debugyHDe6:debugz67pg,2,1,0,0,0
12,5343,0,1714509191093,0,C111101000010,8,4,6,6,4,2,TEST,6587552,1714508818884,10,4,C000001100010,3,human,debugyHDe6:debugz67pg,1,1,0,0,0
12,7463,0,1714509198557,0,C000001111011,9,5,6,6,4,3,TEST,6587552,1714508818884,10,4,C000001100010,3,human,debugyHDe6:debugz67pg,1,1,0,0,0
12,7078,0,1714509205637,0,C000011110011,10,6,6,6,4,3,TEST,6587552,1714508818884,10,4,C000001100010,3,human,debugyHDe6:debugz67pg,1,1,0,0,0
12,5359,0,1714509210998,0,C000101110011,11,7,6,6,4,3,TEST,6587552,1714508818884,10,4,C000001100010,3,human,debugyHDe6:debugz67pg,1,1,0,0,0
12,3974,0,1714509214973,0,C001001110011,12,8,6,6,4,3,TEST,6587552,1714508818884,10,4,C000001100010,3,human,debugyHDe6:debugz67pg,1,1,0,0,0
12,4248,0,1714509219222,0,C110001110001,13,9,6,6,4,2,TEST,6587552,1714508818884,10,4,C000001100010,3,human,debugyHDe6:debugz67pg,1,1,0,0,0
12,4054,0,1714509223277,0,C001001110011,14,10,6,6,4,3,TEST,6587552,1714508818884,10,4,C000001100010,3,human,debugyHDe6:debugz67pg,1,1,1,0,1
12,5438,0,1714509228717,0,C010001110101,15,11,6,6,4,2,TEST,6587552,1714508818884,10,4,C000001100010,3,human,debugyHDe6:debugz67pg,1,1,0,0,0
12,7046,0,1714509235765,0,C011001110001,16,12,6,6,4,2,TEST,6587552,1714508818884,10,4,C000001100010,3,human,debugyHDe6:debugz67pg,1,1,0,0,0
12,9983,0,1714509245749,0,C111001100001,17,13,6,6,4,2,TEST,6587552,1714508818884,10,4,C000001100010,3,human,debugyHDe6:debugz67pg,1,1,0,0,0
12,3670,0,1714509249420,0,C001111100001,18,14,6,6,4,2,TEST,6587552,1714508818884,10,4,C000001100010,3,human,debugyHDe6:debugz67pg,1,1,0,0,0
12,3960,0,1714509253382,0,C000111100011,19,15,6,6,4,3,TEST,6587552,1714508818884,10,4,C000001100010,3,human,debugyHDe6:debugz67pg,1,1,0,0,0
12,1,0,1714509255399,0,C000010110111,1,0,6,6,4,2,TEST,6587552,1714508818884,10,5,C010000100010,3,model,debugyHDe6:debugz67pg,220,90,1,1,1
12,9,0,1714509255408,0,C101100110001,2,0,6,6,4,1,TEST,6587552,1714508818884,10,5,C010000100010,3,model,debugyHDe6:debugz67pg,90,36,0,0,0
12,10,0,1714509255418,0,C010001100011,3,0,5,6,4,3,TEST,6587552,1714508818884,10,5,C010000100010,3,model,debugyHDe6:debugz67pg,36,4,0,0,0
12,11,0,1714509255429,0,C000001100010,4,0,3,6,4,2,TEST,6587552,1714508818884,10,5,C010000100010,3,model,debugyHDe6:debugz67pg,4,2,1,0,1
12,15208,0,1714509270637,0,C111000100011,5,1,6,6,4,3,TEST,6587552,1714508818884,10,5,C010000100010,3,human,debugyHDe6:debugz67pg,2,1,0,0,0
12,9374,0,1714509280012,0,C011101100010,6,2,6,6,4,3,TEST,6587552,1714508818884,10,5,C010000100010,3,human,debugyHDe6:debugz67pg,1,1,0,0,0
12,4534,0,1714509284548,0,C011100101010,7,3,6,6,4,3,TEST,6587552,1714508818884,10,5,C010000100010,3,human,debugyHDe6:debugz67pg,1,1,0,0,0
12,4886,0,1714509289436,0,C011000100110,8,4,5,6,4,3,TEST,6587552,1714508818884,10,5,C010000100010,3,human,debugyHDe6:debugz67pg,1,1,0,0,0
12,4368,0,1714509293806,0,C011100100110,9,5,6,6,4,3,TEST,6587552,1714508818884,10,5,C010000100010,3,human,debugyHDe6:debugz67pg,1,1,0,0,0
12,6822,0,1714509300629,0,C011000100111,10,6,6,6,4,3,TEST,6587552,1714508818884,10,5,C010000100010,3,human,debugyHDe6:debugz67pg,1,1,0,0,0
12,7118,0,1714509307749,0,C111001100010,11,7,6,6,4,3,TEST,6587552,1714508818884,10,5,C010000100010,3,human,debugyHDe6:debugz67pg,1,1,0,0,0
12,7759,0,1714509315509,0,C011001101100,12,8,6,6,4,2,TEST,6587552,1714508818884,10,5,C010000100010,3,human,debugyHDe6:debugz67pg,1,1,0,0,0
12,4535,0,1714509320045,0,C011101100010,13,9,6,6,4,3,TEST,6587552,1714508818884,10,5,C010000100010,3,human,debugyHDe6:debugz67pg,1,1,1,0,1
12,6974,0,1714509327021,0,C110011100010,14,10,6,6,4,3,TEST,6587552,1714508818884,10,5,C010000100010,3,human,debugyHDe6:debugz67pg,1,1,0,0,0
12,6092,0,1714509333114,0,C001100110110,15,11,6,6,4,2,TEST,6587552,1714508818884,10,5,C010000100010,3,human,debugyHDe6:debugz67pg,1,1,0,0,0
12,12880,0,1714509345996,0,C011010101010,16,12,6,6,4,3,TEST,6587552,1714508818884,10,5,C010000100010,3,human,debugyHDe6:debugz67pg,1,1,0,0,0
12,4631,0,1714509350628,0,C011100110010,17,13,6,6,4,3,TEST,6587552,1714508818884,10,5,C010000100010,3,human,debugyHDe6:debugz67pg,1,1,0,0,0
12,11727,0,1714509362356,0,C101010110010,18,14,6,6,4,2,TEST,6587552,1714508818884,10,5,C010000100010,3,human,debugyHDe6:debugz67pg,1,1,0,0,0
12,5118,0,1714509367476,0,C001110110010,19,15,6,6,4,2,TEST,6587552,1714508818884,10,5,C010000100010,3,human,debugyHDe6:debugz67pg,1,1,0,0,0
12,0,0,1714509368912,4,C000000000111,1,0,3,6,2,1,TEST,6587552,1714508818884,10,6,C001100000001,3,model,debugyHDe6:debugz67pg,220,108,1,1,1
12,10,0,1714509368922,4,C000000111000,2,0,3,6,2,0,TEST,6587552,1714508818884,10,6,C001100000001,3,model,debugyHDe6:debugz67pg,108,45,0,1,1
12,7049,0,1714509375972,4,C000000111111,3,1,6,6,2,1,TEST,6587552,1714508818884,10,6,C001100000001,3,human,debugyHDe6:debugz67pg,45,45,0,0,0
12,3655,0,1714509379628,4,C000001111101,4,2,6,6,2,1,TEST,6587552,1714508818884,10,6,C001100000001,3,human,debugyHDe6:debugz67pg,45,25,0,0,0
12,3312,0,1714509382941,4,C111110000001,5,3,6,6,2,3,TEST,6587552,1714508818884,10,6,C001100000001,3,human,debugyHDe6:debugz67pg,25,10,0,0,0
12,4110,0,1714509387052,4,C111000110001,6,4,6,6,2,2,TEST,6587552,1714508818884,10,6,C001100000001,3,human,debugyHDe6:debugz67pg,10,6,0,0,0
12,4048,0,1714509391101,4,C011011100001,7,5,6,6,2,2,TEST,6587552,1714508818884,10,6,C001100000001,3,human,debugyHDe6:debugz67pg,6,3,0,0,0
12,3942,0,1714509395044,4,C011111000001,8,6,6,6,2,3,TEST,6587552,1714508818884,10,6,C001100000001,3,human,debugyHDe6:debugz67pg,3,2,0,0,0
12,6303,0,1714509401348,4,C111101000001,9,7,6,6,2,3,TEST,6587552,1714508818884,10,6,C001100000001,3,human,debugyHDe6:debugz67pg,2,2,0,0,0
12,3477,0,1714509404826,4,C111100100001,10,8,6,6,2,3,TEST,6587552,1714508818884,10,6,C001100000001,3,human,debugyHDe6:debugz67pg,2,2,0,0,0
12,4368,0,1714509409195,4,C111101000001,11,9,6,6,2,3,TEST,6587552,1714508818884,10,6,C001100000001,3,human,debugyHDe6:debugz67pg,2,2,1,0,1
12,6720,0,1714509415917,4,C011110001001,12,10,6,6,2,3,TEST,6587552,1714508818884,10,6,C001100000001,3,human,debugyHDe6:debugz67pg,2,2,0,0,0
12,5341,0,1714509421259,4,C111100100001,13,11,6,6,2,3,TEST,6587552,1714508818884,10,6,C001100000001,3,human,debugyHDe6:debugz67pg,2,2,1,0,1
12,6952,0,1714509428213,4,C111100000011,14,12,6,6,2,3,TEST,6587552,1714508818884,10,6,C001100000001,3,human,debugyHDe6:debugz67pg,2,2,0,0,0
12,6373,0,1714509434588,4,C010101000011,15,13,5,6,2,2,TEST,6587552,1714508818884,10,6,C001100000001,3,human,debugyHDe6:debugz67pg,2,1,0,0,0
12,6198,0,1714509440788,4,C011100000111,16,14,6,6,2,3,TEST,6587552,1714508818884,10,6,C001100000001,3,human,debugyHDe6:debugz67pg,1,1,0,0,0
12,8499,0,1714509449289,4,C011110000101,17,15,6,6,2,3,TEST,6587552,1714508818884,10,6,C001100000001,3,human,debugyHDe6:debugz67pg,1,1,0,0,0
12,3925,0,1714509454885,4,C001110100011,1,1,6,6,0,1,TEST,6587552,1714508818884,10,7,C000101001000,3,human,debugyHDe6:debugz67pg,220,90,1,1,1
12,4486,0,1714509459372,4,C000110011110,2,2,6,6,0,2,TEST,6587552,1714508818884,10,7,C000101001000,3,human,debugyHDe6:debugz67pg,90,36,0,0,0
12,5068,0,1714509464441,4,C100110110010,3,3,6,6,0,1,TEST,6587552,1714508818884,10,7,C000101001000,3,human,debugyHDe6:debugz67pg,36,17,0,0,0
12,3096,0,1714509467539,4,C000011111010,4,4,6,6,0,2,TEST,6587552,1714508818884,10,7,C000101001000,3,human,debugyHDe6:debugz67pg,17,8,0,0,0
12,3310,0,1714509470850,4,C011011000110,5,5,6,6,0,1,TEST,6587552,1714508818884,10,7,C000101001000,3,human,debugyHDe6:debugz67pg,8,3,0,0,0
12,3367,0,1714509474218,4,C001011001011,6,6,6,6,0,2,TEST,6587552,1714508818884,10,7,C000101001000,3,human,debugyHDe6:debugz67pg,3,2,0,0,0
12,6929,0,1714509481148,4,C111110000010,7,7,6,6,0,1,TEST,6587552,1714508818884,10,7,C000101001000,3,human,debugyHDe6:debugz67pg,2,2,0,0,0
12,3782,0,1714509484931,4,C000000111111,8,8,6,6,0,1,TEST,6587552,1714508818884,10,7,C000101001000,3,human,debugyHDe6:debugz67pg,2,1,0,0,0
12,5312,0,1714509490244,4,C111011000010,9,9,6,6,0,1,TEST,6587552,1714508818884,10,7,C000101001000,3,human,debugyHDe6:debugz67pg,1,1,0,0,0
12,3783,0,1714509494028,4,C011001100011,10,10,6,6,0,1,TEST,6587552,1714508818884,10,7,C000101001000,3,human,debugyHDe6:debugz67pg,1,1,0,0,0
12,3631,0,1714509497660,4,C010111110000,11,11,6,6,0,2,TEST,6587552,1714508818884,10,7,C000101001000,3,human,debugyHDe6:debugz67pg,1,1,0,0,0
12,4975,0,1714509502636,4,C000111101100,12,12,6,6,0,3,TEST,6587552,1714508818884,10,7,C000101001000,3,human,debugyHDe6:debugz67pg,1,1,0,0,0
12,4989,0,1714509507626,4,C011011000101,13,13,6,6,0,1,TEST,6587552,1714508818884,10,7,C000101001000,3,human,debugyHDe6:debugz67pg,1,1,0,0,0
12,3736,0,1714509511363,4,C100110100110,14,14,6,6,0,1,TEST,6587552,1714508818884,10,7,C000101001000,3,human,debugyHDe6:debugz67pg,1,1,0,0,0
12,3927,0,1714509515291,4,C111110000001,15,15,6,6,0,1,TEST,6587552,1714508818884,10,7,C000101001000,3,human,debugyHDe6:debugz67pg,1,1,0,0,0
12,4061,0,1714509520579,4,C000011110101,1,1,6,6,0,1,TEST,6587552,1714508818884,10,8,C100010001000,3,human,debugyHDe6:debugz67pg,220,90,1,1,1
12,3654,0,1714509524234,4,C011100001011,2,2,6,6,0,1,TEST,6587552,1714508818884,10,8,C100010001000,3,human,debugyHDe6:debugz67pg,90,25,0,0,0
12,3744,0,1714509527979,4,C111001010001,3,3,6,6,0,1,TEST,6587552,1714508818884,10,8,C100010001000,3,human,debugyHDe6:debugz67pg,25,9,0,0,0
12,4575,0,1714509532555,4,C000101011101,4,4,6,6,0,1,TEST,6587552,1714508818884,10,8,C100010001000,3,human,debugyHDe6:debugz67pg,9,5,0,0,0
12,4565,0,1714509537122,4,C110010011001,5,5,6,6,0,3,TEST,6587552,1714508818884,10,8,C100010001000,3,human,debugyHDe6:debugz67pg,5,1,0,0,0
12,4904,0,1714509542027,4,C110011100001,6,6,6,6,0,2,TEST,6587552,1714508818884,10,8,C100010001000,3,human,debugyHDe6:debugz67pg,1,1,0,0,0
12,10575,0,1714509552603,4,C110000111001,7,7,6,6,0,2,TEST,6587552,1714508818884,10,8,C100010001000,3,human,debugyHDe6:debugz67pg,1,1,0,0,0
12,3582,0,1714509556186,4,C111000001101,8,8,6,6,0,2,TEST,6587552,1714508818884,10,8,C100010001000,3,human,debugyHDe6:debugz67pg,1,1,0,0,0
12,4167,0,1714509560355,4,C001110000111,9,9,6,6,0,1,TEST,6587552,1714508818884,10,8,C100010001000,3,human,debugyHDe6:debugz67pg,1,1,0,0,0
12,3942,0,1714509564299,4,C110000111001,10,10,6,6,0,2,TEST,6587552,1714508818884,10,8,C100010001000,3,human,debugyHDe6:debugz67pg,1,1,1,0,1
12,5460,0,1714509569760,4,C101101000011,11,11,6,6,0,1,TEST,6587552,1714508818884,10,8,C100010001000,3,human,debugyHDe6:debugz67pg,1,1,0,0,0
12,4033,0,1714509573794,4,C110010001011,12,12,6,6,0,3,TEST,6587552,1714508818884,10,8,C100010001000,3,human,debugyHDe6:debugz67pg,1,1,0,0,0
12,3951,0,1714509577746,4,C111000000111,13,13,6,6,0,1,TEST,6587552,1714508818884,10,8,C100010001000,3,human,debugyHDe6:debugz67pg,1,1,0,0,0
12,3550,0,1714509581297,4,C110001000111,14,14,6,6,0,1,TEST,6587552,1714508818884,10,8,C100010001000,3,human,debugyHDe6:debugz67pg,1,1,0,0,0
12,5319,0,1714509586617,4,C111010000001,15,15,5,6,0,2,TEST,6587552,1714508818884,10,8,C100010001000,3,human,debugyHDe6:debugz67pg,1,1,0,0,0
12,0,0,1714509587932,4,C000000000111,1,0,3,6,2,1,TEST,6587552,1714508818884,10,9,C000101000001,3,model,debugyHDe6:debugz67pg,220,108,1,1,1
12,9,0,1714509587941,4,C000000111000,2,0,3,6,2,0,TEST,6587552,1714508818884,10,9,C000101000001,3,model,debugyHDe6:debugz67pg,108,45,0,1,1
12,4108,0,1714509592050,4,C000111110001,3,1,6,6,2,3,TEST,6587552,1714508818884,10,9,C000101000001,3,human,debugyHDe6:debugz67pg,45,3,0,0,0
12,4637,0,1714509596688,4,C000011111010,4,2,6,6,2,1,TEST,6587552,1714508818884,10,9,C000101000001,3,human,debugyHDe6:debugz67pg,3,2,0,0,0
12,4576,0,1714509601265,4,C011100001011,5,3,6,6,2,2,TEST,6587552,1714508818884,10,9,C000101000001,3,human,debugyHDe6:debugz67pg,2,2,0,0,0
12,8911,0,1714509610177,4,C000101110101,6,4,6,6,2,3,TEST,6587552,1714508818884,10,9,C000101000001,3,human,debugyHDe6:debugz67pg,2,1,0,0,0
12,4463,0,1714509614642,4,C011100001101,7,5,6,6,2,2,TEST,6587552,1714508818884,10,9,C000101000001,3,human,debugyHDe6:debugz67pg,1,1,0,0,0
12,5160,0,1714509619804,4,C000000111111,8,6,6,6,2,1,TEST,6587552,1714508818884,10,9,C000101000001,3,human,debugyHDe6:debugz67pg,1,1,0,0,0
12,3597,0,1714509623402,4,C011111100000,9,7,6,6,2,2,TEST,6587552,1714508818884,10,9,C000101000001,3,human,debugyHDe6:debugz67pg,1,1,0,0,0
12,3910,0,1714509627313,4,C010101110001,10,8,6,6,2,3,TEST,6587552,1714508818884,10,9,C000101000001,3,human,debugyHDe6:debugz67pg,1,1,0,0,0
12,3824,0,1714509631138,4,C010111100001,11,9,6,6,2,3,TEST,6587552,1714508818884,10,9,C000101000001,3,human,debugyHDe6:debugz67pg,1,1,0,0,0
12,5087,0,1714509636226,4,C010111000011,12,10,6,6,2,3,TEST,6587552,1714508818884,10,9,C000101000001,3,human,debugyHDe6:debugz67pg,1,1,0,0,0
12,4038,0,1714509640265,4,C001111100001,13,11,6,6,2,3,TEST,6587552,1714508818884,10,9,C000101000001,3,human,debugyHDe6:debugz67pg,1,1,0,0,0
12,5231,0,1714509645498,4,C101101100001,14,12,6,6,2,3,TEST,6587552,1714508818884,10,9,C000101000001,3,human,debugyHDe6:debugz67pg,1,1,0,0,0
12,3895,0,1714509649394,4,C000001110111,15,13,6,6,2,2,TEST,6587552,1714508818884,10,9,C000101000001,3,human,debugyHDe6:debugz67pg,1,1,0,0,0
12,5030,0,1714509654426,4,C001100011110,16,14,6,6,2,1,TEST,6587552,1714508818884,10,9,C000101000001,3,human,debugyHDe6:debugz67pg,1,1,0,0,0
12,3278,0,1714509657706,4,C011110100001,17,15,6,6,2,2,TEST,6587552,1714508818884,10,9,C000101000001,3,human,debugyHDe6:debugz67pg,1,1,0,0,0
12,1,0,1714509659540,4,C000000000111,1,0,3,6,4,0,TEST,6587552,1714508818884,10,10,C001011000000,3,model,debugyHDe6:debugz67pg,220,84,1,1,1
12,9,0,1714509659549,4,C000111000000,2,0,3,6,4,2,TEST,6587552,1714508818884,10,10,C001011000000,3,model,debugyHDe6:debugz67pg,84,18,0,1,1
12,9,0,1714509659558,4,C111000000000,3,0,3,6,4,1,TEST,6587552,1714508818884,10,10,C001011000000,3,model,debugyHDe6:debugz67pg,18,9,0,1,1
12,10,0,1714509659568,4,C001001000000,4,0,2,6,4,2,TEST,6587552,1714508818884,10,10,C001011000000,3,model,debugyHDe6:debugz67pg,9,2,0,0,0
12,5409,0,1714509664977,4,C001101101100,5,1,6,6,4,2,TEST,6587552,1714508818884,10,10,C001011000000,3,human,debugyHDe6:debugz67pg,2,1,0,0,0
12,4335,0,1714509669314,4,C011111000100,6,2,6,6,4,3,TEST,6587552,1714508818884,10,10,C001011000000,3,human,debugyHDe6:debugz67pg,1,1,0,0,0
12,5303,0,1714509674618,4,C111101000100,7,3,6,6,4,2,TEST,6587552,1714508818884,10,10,C001011000000,3,human,debugyHDe6:debugz67pg,1,1,0,0,0
12,3296,0,1714509677915,4,C001111001010,8,4,6,6,4,3,TEST,6587552,1714508818884,10,10,C001011000000,3,human,debugyHDe6:debugz67pg,1,1,0,0,0
12,3717,0,1714509681633,4,C110000111100,9,5,6,6,4,0,TEST,6587552,1714508818884,10,10,C001011000000,3,human,debugyHDe6:debugz67pg,1,1,0,0,0
12,4446,0,1714509686081,4,C001111010010,10,6,6,6,4,3,TEST,6587552,1714508818884,10,10,C001011000000,3,human,debugyHDe6:debugz67pg,1,1,0,0,0
12,4167,0,1714509690250,4,C011110000011,11,7,6,6,4,2,TEST,6587552,1714508818884,10,10,C001011000000,3,human,debugyHDe6:debugz67pg,1,1,0,0,0
12,3294,0,1714509693546,4,C000001111110,12,8,6,6,4,1,TEST,6587552,1714508818884,10,10,C001011000000,3,human,debugyHDe6:debugz67pg,1,1,0,0,0
12,4630,0,1714509698177,4,C011100001110,13,9,6,6,4,1,TEST,6587552,1714508818884,10,10,C001011000000,3,human,debugyHDe6:debugz67pg,1,1,0,0,0
12,5032,0,1714509703211,4,C000001111110,14,10,6,6,4,1,TEST,6587552,1714508818884,10,10,C001011000000,3,human,debugyHDe6:debugz67pg,1,1,1,0,1
12,3884,0,1714509707096,4,C001111000011,15,11,6,6,4,3,TEST,6587552,1714508818884,10,10,C001011000000,3,human,debugyHDe6:debugz67pg,1,1,0,0,0
12,3871,0,1714509710969,4,C110000110011,16,12,6,6,4,0,TEST,6587552,1714508818884,10,10,C001011000000,3,human,debugyHDe6:debugz67pg,1,1,0,0,0
12,4000,0,1714509714971,4,C001110010110,17,13,6,6,4,2,TEST,6587552,1714508818884,10,10,C001011000000,3,human,debugyHDe6:debugz67pg,1,1,0,0,0
12,4149,0,1714509719122,4,C000111100110,18,14,6,6,4,2,TEST,6587552,1714508818884,10,10,C001011000000,3,human,debugyHDe6:debugz67pg,1,1,0,0,0
12,3663,0,1714509722786,4,C101110001100,19,15,6,6,4,2,TEST,6587552,1714508818884,10,10,C001011000000,3,human,debugyHDe6:debugz67pg,1,1,0,0,0
12,5,0,1714508963648,0,C100001101101,1,0,6,6,2,2,TEST,3791220,1714508873057,10,1,C100010001000,3,model,debugJ9HXw:debugL3Teb,220,90,1,1,1
12,7,0,1714508963657,0,C100110000111,2,0,6,6,2,2,TEST,3791220,1714508873057,10,1,C100010001000,3,model,debugJ9HXw:debugL3Teb,90,36,0,0,0
12,24359,0,1714508988016,0,C010101010101,3,1,6,6,2,0,TEST,3791220,1714508873057,10,1,C100010001000,3,human,debugJ9HXw:debugL3Teb,36,4,0,0,0
12,12911,0,1714509000929,0,C101010101010,4,2,6,6,2,3,TEST,3791220,1714508873057,10,1,C100010001000,3,human,debugJ9HXw:debugL3Teb,4,4,0,0,0
12,28657,0,1714509029592,0,C101010000000,5,3,3,6,2,2,TEST,3791220,1714508873057,10,1,C100010001000,3,human,debugJ9HXw:debugL3Teb,4,2,1,0,1
12,43223,0,1714509072820,0,C101000100000,6,4,3,6,2,1,TEST,3791220,1714508873057,10,1,C100010001000,3,human,debugJ9HXw:debugL3Teb,2,1,1,0,1
12,5362,0,1714509078188,0,C100000100000,7,5,2,6,2,1,TEST,3791220,1714508873057,10,1,C100010001000,3,human,debugJ9HXw:debugL3Teb,1,1,1,0,1
12,7968,1,1714509086159,0,C100010001000,8,6,3,6,2,3,TEST,3791220,1714508873057,10,1,C100010001000,3,human,debugJ9HXw:debugL3Teb,1,1,1,0,1
12,8675,0,1714509098237,4,C101010101010,1,1,6,6,0,0,TEST,3791220,1714508873057,10,2,C000101000001,3,human,debugJ9HXw:debugL3Teb,220,20,1,1,1
12,5691,0,1714509103933,4,C010101010101,2,2,6,6,0,3,TEST,3791220,1714508873057,10,2,C000101000001,3,human,debugJ9HXw:debugL3Teb,20,20,0,1,1
12,5030,0,1714509108967,4,C010101000000,3,3,3,6,0,2,TEST,3791220,1714508873057,10,2,C000101000001,3,human,debugJ9HXw:debugL3Teb,20,9,1,0,1
12,6781,0,1714509115752,4,C010001010000,4,4,3,6,0,1,TEST,3791220,1714508873057,10,2,C000101000001,3,human,debugJ9HXw:debugL3Teb,9,4,1,0,1
12,5280,0,1714509121037,4,C010100000100,5,5,3,6,0,1,TEST,3791220,1714508873057,10,2,C000101000001,3,human,debugJ9HXw:debugL3Teb,4,1,1,0,1
12,9913,0,1714509130955,4,C010001000010,6,6,3,6,0,1,TEST,3791220,1714508873057,10,2,C000101000001,3,human,debugJ9HXw:debugL3Teb,1,1,0,0,0
12,27026,1,1714509157985,4,C000101000001,7,7,3,6,0,3,TEST,3791220,1714508873057,10,2,C000101000001,3,human,debugJ9HXw:debugL3Teb,1,1,1,0,1
12,5,0,1714509161444,4,C000000000111,1,0,3,6,1,1,TEST,3791220,1714508873057,10,3,C000001100010,3,model,debugJ9HXw:debugL3Teb,220,108,1,1,1
12,24551,0,1714509185996,4,C101010101001,2,1,6,6,1,1,TEST,3791220,1714508873057,10,3,C000001100010,3,human,debugJ9HXw:debugL3Teb,108,46,0,0,0
12,10363,0,1714509196362,4,C101010101010,3,2,6,6,1,2,TEST,3791220,1714508873057,10,3,C000001100010,3,human,debugJ9HXw:debugL3Teb,46,20,0,0,0
12,22349,0,1714509218715,4,C000000101010,4,3,3,6,1,2,TEST,3791220,1714508873057,10,3,C000001100010,3,human,debugJ9HXw:debugL3Teb,20,8,1,0,1
12,10628,0,1714509229348,4,C000000001010,5,4,2,6,1,1,TEST,3791220,1714508873057,10,3,C000001100010,3,human,debugJ9HXw:debugL3Teb,8,4,1,0,1
12,8352,1,1714509237705,4,C000001100010,6,5,3,6,1,3,TEST,3791220,1714508873057,10,3,C000001100010,3,human,debugJ9HXw:debugL3Teb,4,1,0,0,0
12,3,0,1714509239848,0,C101011000011,1,0,6,6,1,1,TEST,3791220,1714508873057,10,4,C000010011000,3,model,debugJ9HXw:debugL3Teb,220,90,1,1,1
12,11981,0,1714509251830,0,C101011000000,2,1,4,6,1,1,TEST,3791220,1714508873057,10,4,C000010011000,3,human,debugJ9HXw:debugL3Teb,90,60,1,0,1
12,10829,0,1714509262664,0,C101000000000,3,2,2,6,1,0,TEST,3791220,1714508873057,10,4,C000010011000,3,human,debugJ9HXw:debugL3Teb,60,30,1,0,1
12,8505,0,1714509271174,0,C000001000000,4,3,1,6,1,0,TEST,3791220,1714508873057,10,4,C000010011000,3,human,debugJ9HXw:debugL3Teb,30,15,1,0,1
12,7179,0,1714509278359,0,C000010101100,5,4,4,6,1,2,TEST,3791220,1714508873057,10,4,C000010011000,3,human,debugJ9HXw:debugL3Teb,15,9,0,0,0
12,14420,0,1714509292784,0,C000010001000,6,5,2,6,1,2,TEST,3791220,1714508873057,10,4,C000010011000,3,human,debugJ9HXw:debugL3Teb,9,3,1,0,1
12,4812,0,1714509297602,0,C010010001000,7,6,3,6,1,2,TEST,3791220,1714508873057,10,4,C000010011000,3,human,debugJ9HXw:debugL3Teb,3,2,0,0,0
12,4553,0,1714509302161,0,C000110001000,8,7,3,6,1,2,TEST,3791220,1714508873057,10,4,C000010011000,3,human,debugJ9HXw:debugL3Teb,2,1,0,0,0
12,12129,1,1714509314293,0,C000010011000,9,8,3,6,1,3,TEST,3791220,1714508873057,10,4,C000010011000,3,human,debugJ9HXw:debugL3Teb,1,1,0,0,0
12,4,0,1714509317060,4,C000000000111,1,0,3,6,3,1,TEST,3791220,1714508873057,10,5,C011000000100,3,model,debugJ9HXw:debugL3Teb,220,108,1,1,1
12,10,0,1714509317071,4,C000000111000,2,0,3,6,3,0,TEST,3791220,1714508873057,10,5,C011000000100,3,model,debugJ9HXw:debugL3Teb,108,45,0,1,1
12,13,0,1714509317085,4,C000111000000,3,0,3,6,3,0,TEST,3791220,1714508873057,10,5,C011000000100,3,model,debugJ9HXw:debugL3Teb,45,9,0,1,1
12,5422,0,1714509322508,4,C000000000100,4,1,1,6,3,1,TEST,3791220,1714508873057,10,5,C011000000100,3,human,debugJ9HXw:debugL3Teb,9,3,1,0,1
12,6857,1,1714509329370,4,C011000000100,5,2,3,6,3,3,TEST,3791220,1714508873057,10,5,C011000000100,3,human,debugJ9HXw:debugL3Teb,3,1,0,0,0
12,5,0,1714509332378,0,C010111010001,1,0,6,6,1,2,TEST,3791220,1714508873057,10,6,C001011000000,3,model,debugJ9HXw:debugL3Teb,220,90,1,1,1
12,6677,0,1714509339056,0,C010000000000,2,1,1,6,1,0,TEST,3791220,1714508873057,10,6,C001011000000,3,human,debugJ9HXw:debugL3Teb,90,60,1,0,1
12,1556,0,1714509340618,0,C000100000000,3,2,1,6,1,0,TEST,3791220,1714508873057,10,6,C001011000000,3,human,debugJ9HXw:debugL3Teb,60,36,1,0,1
12,2703,0,1714509343324,0,C000010000000,4,3,1,6,1,1,TEST,3791220,1714508873057,10,6,C001011000000,3,human,debugJ9HXw:debugL3Teb,36,18,1,0,1
12,2367,0,1714509345697,0,C000010010000,5,4,2,6,1,1,TEST,3791220,1714508873057,10,6,C001011000000,3,human,debugJ9HXw:debugL3Teb,18,12,1,0,1
12,7885,0,1714509353585,0,C100010000001,6,5,3,6,1,1,TEST,3791220,1714508873057,10,6,C001011000000,3,human,debugJ9HXw:debugL3Teb,12,5,0,0,0
12,11190,0,1714509364779,0,C000011000000,7,6,2,6,1,2,TEST,3791220,1714508873057,10,6,C001011000000,3,human,debugJ9HXw:debugL3Teb,5,5,1,0,1
12,3647,1,1714509368431,0,C001011000000,8,7,3,6,1,3,TEST,3791220,1714508873057,10,6,C001011000000,3,human,debugJ9HXw:debugL3Teb,5,1,0,0,0
12,4,0,1714509372194,4,C000000000111,1,0,3,6,4,0,TEST,3791220,1714508873057,10,7,C010000101000,3,model,debugJ9HXw:debugL3Teb,220,84,1,1,1
12,11,0,1714509372205,4,C000111000000,2,0,3,6,4,0,TEST,3791220,1714508873057,10,7,C010000101000,3,model,debugJ9HXw:debugL3Teb,84,20,0,1,1
12,11,0,1714509372216,4,C000000110000,3,0,2,6,4,1,TEST,3791220,1714508873057,10,7,C010000101000,3,model,debugJ9HXw:debugL3Teb,20,12,0,1,1
12,12,0,1714509372229,4,C100000010000,4,0,2,6,4,0,TEST,3791220,1714508873057,10,7,C010000101000,3,model,debugJ9HXw:debugL3Teb,12,3,0,0,0
12,22793,0,1714509395022,4,C001000101000,5,1,3,6,4,2,TEST,3791220,1714508873057,10,7,C010000101000,3,human,debugJ9HXw:debugL3Teb,3,2,0,0,0
12,3310,1,1714509398338,4,C010000101000,6,2,3,6,4,3,TEST,3791220,1714508873057,10,7,C010000101000,3,human,debugJ9HXw:debugL3Teb,2,1,0,0,0
12,4,0,1714509402141,0,C010001100111,1,0,6,6,3,1,TEST,3791220,1714508873057,10,8,C011000001000,3,model,debugJ9HXw:debugL3Teb,220,90,1,1,1
12,10,0,1714509402152,0,C100000111011,2,0,6,6,3,1,TEST,3791220,1714508873057,10,8,C011000001000,3,model,debugJ9HXw:debugL3Teb,90,36,0,0,0
12,10,0,1714509402162,0,C111000010100,3,0,5,6,3,2,TEST,3791220,1714508873057,10,8,C011000001000,3,model,debugJ9HXw:debugL3Teb,36,12,0,0,0
12,29326,0,1714509431489,0,C100000000000,4,1,1,6,3,0,TEST,3791220,1714508873057,10,8,C011000001000,3,human,debugJ9HXw:debugL3Teb,12,7,1,0,1
12,1376,0,1714509432871,0,C010000000000,5,2,1,6,3,1,TEST,3791220,1714508873057,10,8,C011000001000,3,human,debugJ9HXw:debugL3Teb,7,3,1,0,1
12,5127,0,1714509438000,0,C010000010000,6,3,2,6,3,1,TEST,3791220,1714508873057,10,8,C011000001000,3,human,debugJ9HXw:debugL3Teb,3,1,1,0,1
12,2939,0,1714509440944,0,C010000000100,7,4,2,6,3,1,TEST,3791220,1714508873057,10,8,C011000001000,3,human,debugJ9HXw:debugL3Teb,1,1,1,0,1
12,6604,0,1714509447550,0,C010000000001,8,5,2,6,3,1,TEST,3791220,1714508873057,10,8,C011000001000,3,human,debugJ9HXw:debugL3Teb,1,1,1,0,1
12,3711,0,1714509451264,0,C010000000010,9,6,2,6,3,1,TEST,3791220,1714508873057,10,8,C011000001000,3,human,debugJ9HXw:debugL3Teb,1,1,1,0,1
12,22097,0,1714509473367,0,C010000010000,10,7,2,6,3,1,TEST,3791220,1714508873057,10,8,C011000001000,3,human,debugJ9HXw:debugL3Teb,1,1,1,0,1
12,6602,0,1714509479976,0,C010000000100,11,8,2,6,3,1,TEST,3791220,1714508873057,10,8,C011000001000,3,human,debugJ9HXw:debugL3Teb,1,1,1,0,1
12,10598,0,1714509490580,0,C000000010000,12,9,1,6,3,0,TEST,3791220,1714508873057,10,8,C011000001000,3,human,debugJ9HXw:debugL3Teb,1,1,1,0,1
12,1842,0,1714509492428,0,C010000000000,13,10,1,6,3,1,TEST,3791220,1714508873057,10,8,C011000001000,3,human,debugJ9HXw:debugL3Teb,1,1,1,0,1
12,10274,0,1714509502705,0,C110000000000,14,11,2,6,3,1,TEST,3791220,1714508873057,10,8,C011000001000,3,human,debugJ9HXw:debugL3Teb,1,1,1,0,1
12,20122,0,1714509522834,0,C011000000000,15,12,2,6,3,2,TEST,3791220,1714508873057,10,8,C011000001000,3,human,debugJ9HXw:debugL3Teb,1,1,1,0,1
12,14464,0,1714509537304,0,C011010000000,16,13,3,6,3,2,TEST,3791220,1714508873057,10,8,C011000001000,3,human,debugJ9HXw:debugL3Teb,1,1,0,0,0
12,3543,0,1714509540851,0,C011100000000,17,14,3,6,3,2,TEST,3791220,1714508873057,10,8,C011000001000,3,human,debugJ9HXw:debugL3Teb,1,1,0,0,0
12,17074,0,1714509557932,0,C011001000000,18,15,3,6,3,2,TEST,3791220,1714508873057,10,8,C011000001000,3,human,debugJ9HXw:debugL3Teb,1,1,0,0,0
12,1,0,1714509561513,0,C110111000010,1,0,6,6,1,2,TEST,3791220,1714508873057,10,9,C000110000001,3,model,debugJ9HXw:debugL3Teb,220,90,1,1,1
12,6501,0,1714509568014,0,C100000000000,2,1,1,6,1,0,TEST,3791220,1714508873057,10,9,C000110000001,3,human,debugJ9HXw:debugL3Teb,90,60,1,0,1
12,1901,0,1714509569920,0,C010000000000,3,2,1,6,1,0,TEST,3791220,1714508873057,10,9,C000110000001,3,human,debugJ9HXw:debugL3Teb,60,36,1,0,1
12,1981,0,1714509571904,0,C000100000000,4,3,1,6,1,1,TEST,3791220,1714508873057,10,9,C000110000001,3,human,debugJ9HXw:debugL3Teb,36,18,1,0,1
12,2656,0,1714509574563,0,C000110000000,5,4,2,6,1,2,TEST,3791220,1714508873057,10,9,C000110000001,3,human,debugJ9HXw:debugL3Teb,18,6,1,0,1
12,3221,0,1714509577790,0,C000110100000,6,5,3,6,1,2,TEST,3791220,1714508873057,10,9,C000110000001,3,human,debugJ9HXw:debugL3Teb,6,5,0,0,0
12,3194,0,1714509580990,0,C000110010000,7,6,3,6,1,2,TEST,3791220,1714508873057,10,9,C000110000001,3,human,debugJ9HXw:debugL3Teb,5,4,0,0,0
12,3335,0,1714509584331,0,C000110000100,8,7,3,6,1,2,TEST,3791220,1714508873057,10,9,C000110000001,3,human,debugJ9HXw:debugL3Teb,4,3,0,0,0
12,3027,1,1714509587361,0,C000110000001,9,8,3,6,1,3,TEST,3791220,1714508873057,10,9,C000110000001,3,human,debugJ9HXw:debugL3Teb,3,1,0,0,0
12,9,0,1714509588736,4,C000000000111,1,0,3,6,2,1,TEST,3791220,1714508873057,10,10,C000011000010,3,model,debugJ9HXw:debugL3Teb,220,108,1,1,1
12,8,0,1714509588745,4,C000000111000,2,0,3,6,2,0,TEST,3791220,1714508873057,10,10,C000011000010,3,model,debugJ9HXw:debugL3Teb,108,45,0,1,1
12,5099,0,1714509593845,4,C000000000100,3,1,1,6,2,0,TEST,3791220,1714508873057,10,10,C000011000010,3,human,debugJ9HXw:debugL3Teb,45,30,1,0,1
12,1445,0,1714509595295,4,C000000000010,4,2,1,6,2,1,TEST,3791220,1714508873057,10,10,C000011000010,3,human,debugJ9HXw:debugL3Teb,30,15,1,0,1
12,3214,0,1714509598513,4,C000001000010,5,3,2,6,2,2,TEST,3791220,1714508873057,10,10,C000011000010,3,human,debugJ9HXw:debugL3Teb,15,5,0,0,0
12,4213,1,1714509602731,4,C000011000010,6,4,3,6,2,3,TEST,3791220,1714508873057,10,10,C000011000010,3,human,debugJ9HXw:debugL3Teb,5,1,0,0,0
12,3,0,1714508985321,0,C101100011001,1,0,6,6,3,1,TEST,5198358,1714508903741,10,1,C010000101000,3,model,debug4ODuf:debugVvPfi,220,90,1,1,1
12,11,0,1714508985333,0,C100010001111,2,0,6,6,3,1,TEST,5198358,1714508903741,10,1,C010000101000,3,model,debug4ODuf:debugVvPfi,90,36,0,0,0
12,15,0,1714508985349,0,C000111010010,3,0,5,6,3,0,TEST,5198358,1714508903741,10,1,C010000101000,3,model,debug4ODuf:debugVvPfi,36,5,0,0,0
12,38860,0,1714509024210,0,C010011100110,4,1,6,6,3,2,TEST,5198358,1714508903741,10,1,C010000101000,3,human,debug4ODuf:debugVvPfi,5,5,0,0,0
12,48818,0,1714509073033,0,C000111010010,5,2,5,6,3,0,TEST,5198358,1714508903741,10,1,C010000101000,3,human,debug4ODuf:debugVvPfi,5,5,1,0,1
12,31930,0,1714509104970,0,C000011011011,6,3,6,6,3,1,TEST,5198358,1714508903741,10,1,C010000101000,3,human,debug4ODuf:debugVvPfi,5,2,0,0,0
12,86372,0,1714509191348,0,C111000001101,7,4,6,6,3,2,TEST,5198358,1714508903741,10,1,C010000101000,3,human,debug4ODuf:debugVvPfi,2,2,0,0,0
12,95443,0,1714509286798,0,C011000101101,8,5,6,6,3,3,TEST,5198358,1714508903741,10,1,C010000101000,3,human,debug4ODuf:debugVvPfi,2,2,0,0,0
12,26806,0,1714509313609,0,C111000101100,9,6,6,6,3,3,TEST,5198358,1714508903741,10,1,C010000101000,3,human,debug4ODuf:debugVvPfi,2,1,0,0,0
12,15908,0,1714509329525,0,C110000001101,10,7,5,6,3,2,TEST,5198358,1714508903741,10,1,C010000101000,3,human,debug4ODuf:debugVvPfi,1,1,1,0,1
12,42967,0,1714509372500,0,C111000101100,11,8,6,6,3,3,TEST,5198358,1714508903741,10,1,C010000101000,3,human,debug4ODuf:debugVvPfi,1,1,1,0,1
12,59446,0,1714509431955,0,C111000101100,12,9,6,6,3,3,TEST,5198358,1714508903741,10,1,C010000101000,3,human,debug4ODuf:debugVvPfi,1,1,1,0,1
12,19692,0,1714509451655,0,C000000101100,13,10,3,6,3,2,TEST,5198358,1714508903741,10,1,C010000101000,3,human,debug4ODuf:debugVvPfi,1,1,1,0,1
12,9987,0,1714509461647,0,C111000000000,14,11,3,6,3,1,TEST,5198358,1714508903741,10,1,C010000101000,3,human,debug4ODuf:debugVvPfi,1,1,1,0,1
12,11680,0,1714509473336,0,C001000001100,15,12,3,6,3,1,TEST,5198358,1714508903741,10,1,C010000101000,3,human,debug4ODuf:debugVvPfi,1,1,1,0,1
12,10821,0,1714509484164,0,C011000001000,16,13,3,6,3,2,TEST,5198358,1714508903741,10,1,C010000101000,3,human,debug4ODuf:debugVvPfi,1,1,1,0,1
12,13572,0,1714509497744,0,C010000001100,17,14,3,6,3,2,TEST,5198358,1714508903741,10,1,C010000101000,3,human,debug4ODuf:debugVvPfi,1,1,1,0,1
12,12692,1,1714509510445,0,C010000101000,18,15,3,6,3,3,TEST,5198358,1714508903741,10,1,C010000101000,3,human,debug4ODuf:debugVvPfi,1,1,1,0,1
12,8730,0,1714509524883,4,C000000101010,1,1,3,6,0,1,TEST,5198358,1714508903741,10,2,C100010001000,3,human,debug4ODuf:debugVvPfi,220,108,1,1,1
12,6468,0,1714509531357,4,C000000010101,2,2,3,6,0,0,TEST,5198358,1714508903741,10,2,C100010001000,3,human,debug4ODuf:debugVvPfi,108,45,0,1,1
12,6422,0,1714509537785,4,C000000101010,3,3,3,6,0,1,TEST,5198358,1714508903741,10,2,C100010001000,3,human,debug4ODuf:debugVvPfi,45,45,1,0,1
12,16080,0,1714509553870,4,C000001100010,4,4,3,6,0,0,TEST,5198358,1714508903741,10,2,C100010001000,3,human,debug4ODuf:debugVvPfi,45,10,0,0,0
12,20775,0,1714509574651,4,C000110001000,5,5,3,6,0,2,TEST,5198358,1714508903741,10,2,C100010001000,3,human,debug4ODuf:debugVvPfi,10,6,0,0,0
12,7972,0,1714509582630,4,C001010001000,6,6,3,6,0,2,TEST,5198358,1714508903741,10,2,C100010001000,3,human,debug4ODuf:debugVvPfi,6,3,0,0,0
12,10799,0,1714509593435,4,C010010001000,7,7,3,6,0,2,TEST,5198358,1714508903741,10,2,C100010001000,3,human,debug4ODuf:debugVvPfi,3,1,0,0,0
12,5694,1,1714509599135,4,C100010001000,8,8,3,6,0,3,TEST,5198358,1714508903741,10,2,C100010001000,3,human,debug4ODuf:debugVvPfi,1,1,0,0,0
12,5,0,1714509602464,4,C000000000111,1,0,3,6,2,1,TEST,5198358,1714508903741,10,3,C010000100010,3,model,debug4ODuf:debugVvPfi,220,108,1,1,1
12,19,0,1714509602484,4,C000000111000,2,0,3,6,2,1,TEST,5198358,1714508903741,10,3,C010000100010,3,model,debug4ODuf:debugVvPfi,108,54,0,1,1
12,12508,0,1714509614993,4,C000001000101,3,1,3,6,2,0,TEST,5198358,1714508903741,10,3,C010000100010,3,human,debug4ODuf:debugVvPfi,54,15,0,0,0
12,9449,0,1714509624448,4,C000000001110,4,2,3,6,2,1,TEST,5198358,1714508903741,10,3,C010000100010,3,human,debug4ODuf:debugVvPfi,15,10,0,0,0
12,30254,0,1714509654708,4,C000000011010,5,3,3,6,2,1,TEST,5198358,1714508903741,10,3,C010000100010,3,human,debug4ODuf:debugVvPfi,10,5,0,0,0
12,7412,0,1714509662126,4,C000010100010,6,4,3,6,2,2,TEST,5198358,1714508903741,10,3,C010000100010,3,human,debug4ODuf:debugVvPfi,5,4,0,0,0
12,8715,0,1714509670847,4,C000010000011,7,5,3,6,2,1,TEST,5198358,1714508903741,10,3,C010000100010,3,human,debug4ODuf:debugVvPfi,4,4,0,0,0
12,13304,0,1714509684157,4,C001000100010,8,6,3,6,2,2,TEST,5198358,1714508903741,10,3,C010000100010,3,human,debug4ODuf:debugVvPfi,4,3,0,0,0
12,6231,0,1714509690394,4,C000000100011,9,7,3,6,2,2,TEST,5198358,1714508903741,10,3,C010000100010,3,human,debug4ODuf:debugVvPfi,3,3,0,0,0
12,12097,0,1714509702498,4,C000100100010,10,8,3,6,2,2,TEST,5198358,1714508903741,10,3,C010000100010,3,human,debug4ODuf:debugVvPfi,3,2,0,0,0
12,7962,1,1714509710467,4,C010000100010,11,9,3,6,2,3,TEST,5198358,1714508903741,10,3,C010000100010,3,human,debug4ODuf:debugVvPfi,2,1,0,0,0
12,4986,0,1714509718239,4,C000001110000,1,1,3,6,0,0,TEST,5198358,1714508903741,10,4,C011000000100,3,human,debug4ODuf:debugVvPfi,220,84,1,1,1
12,4860,0,1714509723105,4,C000000001110,2,2,3,6,0,1,TEST,5198358,1714508903741,10,4,C011000000100,3,human,debug4ODuf:debugVvPfi,84,45,0,1,1
12,4390,0,1714509727501,4,C000000000111,3,3,3,6,0,1,TEST,5198358,1714508903741,10,4,C011000000100,3,human,debug4ODuf:debugVvPfi,45,25,0,0,0
12,8523,0,1714509736030,4,C000010001010,4,4,3,6,0,0,TEST,5198358,1714508903741,10,4,C011000000100,3,human,debug4ODuf:debugVvPfi,25,6,0,0,0
12,22636,0,1714509758672,4,C000100000101,5,5,3,6,0,1,TEST,5198358,1714508903741,10,4,C011000000100,3,human,debug4ODuf:debugVvPfi,6,3,0,0,0
12,12227,0,1714509770903,4,C011000000010,6,6,3,6,0,2,TEST,5198358,1714508903741,10,4,C011000000100,3,human,debug4ODuf:debugVvPfi,3,1,0,0,0
12,7075,0,1714509777985,4,C101000000010,7,7,3,6,0,1,TEST,5198358,1714508903741,10,4,C011000000100,3,human,debug4ODuf:debugVvPfi,1,1,0,0,0
12,22505,1,1714509800496,4,C011000000100,8,8,3,6,0,3,TEST,5198358,1714508903741,10,4,C011000000100,3,human,debug4ODuf:debugVvPfi,1,1,0,0,0
12,5687,0,1714509808647,4,C000101010000,1,1,3,6,0,1,TEST,5198358,1714508903741,10,5,C000010011000,3,human,debug4ODuf:debugVvPfi,220,108,1,1,1
12,4936,0,1714509813589,4,C000000000111,2,2,3,6,0,0,TEST,5198358,1714508903741,10,5,C000010011000,3,human,debug4ODuf:debugVvPfi,108,45,0,1,1
12,5514,0,1714509819109,4,C000000111000,3,3,3,6,0,2,TEST,5198358,1714508903741,10,5,C000010011000,3,human,debug4ODuf:debugVvPfi,45,10,0,0,0
12,8274,0,1714509827390,4,C000001110000,4,4,3,6,0,1,TEST,5198358,1714508903741,10,5,C000010011000,3,human,debug4ODuf:debugVvPfi,10,5,0,0,0
12,13278,1,1714509840674,4,C000010011000,5,5,3,6,0,3,TEST,5198358,1714508903741,10,5,C000010011000,3,human,debug4ODuf:debugVvPfi,5,1,0,0,0
12,5,0,1714509843815,0,C101101011000,1,0,6,6,1,1,TEST,5198358,1714508903741,10,6,C010010001000,3,model,debug4ODuf:debugVvPfi,220,90,1,1,1
12,5531,0,1714509849346,0,C000000000111,2,1,3,6,1,0,TEST,5198358,1714508903741,10,6,C010010001000,3,human,debug4ODuf:debugVvPfi,90,18,0,1,1
12,5530,0,1714509854882,0,C000000111000,3,2,3,6,1,1,TEST,5198358,1714508903741,10,6,C010010001000,3,human,debug4ODuf:debugVvPfi,18,10,0,0,0
12,8819,0,1714509863705,0,C000011001000,4,3,3,6,1,2,TEST,5198358,1714508903741,10,6,C010010001000,3,human,debug4ODuf:debugVvPfi,10,2,0,0,0
12,10443,0,1714509874152,0,C010001001000,5,4,3,6,1,2,TEST,5198358,1714508903741,10,6,C010010001000,3,human,debug4ODuf:debugVvPfi,2,1,0,0,0
12,14902,0,1714509889060,0,C010000011000,6,5,3,6,1,2,TEST,5198358,1714508903741,10,6,C010010001000,3,human,debug4ODuf:debugVvPfi,1,1,0,0,0
12,6772,0,1714509895839,0,C000000111000,7,6,3,6,1,1,TEST,5198358,1714508903741,10,6,C010010001000,3,human,debug4ODuf:debugVvPfi,1,1,1,0,1
12,10105,0,1714509905951,0,C010100001000,8,7,3,6,1,2,TEST,5198358,1714508903741,10,6,C010010001000,3,human,debug4ODuf:debugVvPfi,1,1,0,0,0
12,8801,1,1714509914761,0,C010010001000,9,8,3,6,1,3,TEST,5198358,1714508903741,10,6,C010010001000,3,human,debug4ODuf:debugVvPfi,1,1,0,0,0
12,6201,0,1714509923831,0,C000100100100,1,1,3,6,0,1,TEST,5198358,1714508903741,10,7,C000110000001,3,human,debug4ODuf:debugVvPfi,220,108,1,1,1
12,4420,0,1714509928255,0,C000000001011,2,2,3,6,0,1,TEST,5198358,1714508903741,10,7,C000110000001,3,human,debug4ODuf:debugVvPfi,108,54,0,1,1
12,5673,0,1714509933934,0,C000000110100,3,3,3,6,0,0,TEST,5198358,1714508903741,10,7,C000110000001,3,human,debug4ODuf:debugVvPfi,54,15,0,0,0
12,9615,0,1714509943557,0,C000011000100,4,4,3,6,0,1,TEST,5198358,1714508903741,10,7,C000110000001,3,human,debug4ODuf:debugVvPfi,15,6,0,0,0
12,18332,0,1714509961895,0,C000001110000,5,5,3,6,0,0,TEST,5198358,1714508903741,10,7,C000110000001,3,human,debug4ODuf:debugVvPfi,6,3,0,0,0
12,9857,0,1714509971758,0,C000110000100,6,6,3,6,0,2,TEST,5198358,1714508903741,10,7,C000110000001,3,human,debug4ODuf:debugVvPfi,3,3,0,0,0
12,6457,0,1714509978221,0,C001010000100,7,7,3,6,0,1,TEST,5198358,1714508903741,10,7,C000110000001,3,human,debug4ODuf:debugVvPfi,3,3,0,0,0
12,11732,0,1714509989957,0,C010100000100,8,8,3,6,0,1,TEST,5198358,1714508903741,10,7,C000110000001,3,human,debug4ODuf:debugVvPfi,3,3,0,0,0
12,11027,0,1714510000991,0,C000100000011,9,9,3,6,0,2,TEST,5198358,1714508903741,10,7,C000110000001,3,human,debug4ODuf:debugVvPfi,3,2,0,0,0
12,8563,0,1714510009561,0,C000000001011,10,10,3,6,0,1,TEST,5198358,1714508903741,10,7,C000110000001,3,human,debug4ODuf:debugVvPfi,2,2,1,0,1
12,19133,0,1714510028701,0,C101000000010,11,11,3,6,0,0,TEST,5198358,1714508903741,10,7,C000110000001,3,human,debug4ODuf:debugVvPfi,2,1,0,0,0
12,13852,1,1714510042560,0,C000110000001,12,12,3,6,0,3,TEST,5198358,1714508903741,10,7,C000110000001,3,human,debug4ODuf:debugVvPfi,1,1,0,0,0
12,4,0,1714510045087,0,C110001001011,1,0,6,6,4,2,TEST,5198358,1714508903741,10,8,C000101000001,3,model,debug4ODuf:debugVvPfi,220,90,1,1,1
12,16,0,1714510045104,0,C010100011110,2,0,6,6,4,1,TEST,5198358,1714508903741,10,8,C000101000001,3,model,debug4ODuf:debugVvPfi,90,36,0,0,0
12,17,0,1714510045122,0,C011001100010,3,0,5,6,4,1,TEST,5198358,1714508903741,10,8,C000101000001,3,model,debug4ODuf:debugVvPfi,36,15,0,0,0
12,30,0,1714510045153,0,C011010001011,4,0,6,6,4,1,TEST,5198358,1714508903741,10,8,C000101000001,3,model,debug4ODuf:debugVvPfi,15,4,0,0,0
12,16055,0,1714510061209,0,C111000000000,5,1,3,6,4,0,TEST,5198358,1714508903741,10,8,C000101000001,3,human,debug4ODuf:debugVvPfi,4,3,0,0,0
12,4441,0,1714510065654,0,C000111000000,6,2,3,6,4,2,TEST,5198358,1714508903741,10,8,C000101000001,3,human,debug4ODuf:debugVvPfi,3,1,0,0,0
12,5766,0,1714510071425,0,C000011001000,7,3,3,6,4,1,TEST,5198358,1714508903741,10,8,C000101000001,3,human,debug4ODuf:debugVvPfi,1,1,0,0,0
12,5586,0,1714510077018,0,C000001101000,8,4,3,6,4,1,TEST,5198358,1714508903741,10,8,C000101000001,3,human,debug4ODuf:debugVvPfi,1,1,0,0,0
12,9462,0,1714510086484,0,C000010000011,9,5,3,6,4,1,TEST,5198358,1714508903741,10,8,C000101000001,3,human,debug4ODuf:debugVvPfi,1,1,1,0,1
12,6805,0,1714510093294,0,C000111000000,10,6,3,6,4,2,TEST,5198358,1714508903741,10,8,C000101000001,3,human,debug4ODuf:debugVvPfi,1,1,1,0,1
12,4883,0,1714510098185,0,C000101100000,11,7,3,6,4,2,TEST,5198358,1714508903741,10,8,C000101000001,3,human,debug4ODuf:debugVvPfi,1,1,0,0,0
12,7088,0,1714510105279,0,C000101010000,12,8,3,6,4,2,TEST,5198358,1714508903741,10,8,C000101000001,3,human,debug4ODuf:debugVvPfi,1,1,0,0,0
12,7977,0,1714510113264,0,C000101001000,13,9,3,6,4,2,TEST,5198358,1714508903741,10,8,C000101000001,3,human,debug4ODuf:debugVvPfi,1,1,0,0,0
12,7980,0,1714510121251,0,C000101000100,14,10,3,6,4,2,TEST,5198358,1714508903741,10,8,C000101000001,3,human,debug4ODuf:debugVvPfi,1,1,0,0,0
12,8165,0,1714510129423,0,C000101000010,15,11,3,6,4,2,TEST,5198358,1714508903741,10,8,C000101000001,3,human,debug4ODuf:debugVvPfi,1,1,0,0,0
12,5413,1,1714510134845,0,C000101000001,16,12,3,6,4,3,TEST,5198358,1714508903741,10,8,C000101000001,3,human,debug4ODuf:debugVvPfi,1,1,0,0,0
12,7059,0,1714510146128,0,C000000000111,1,1,3,6,0,2,TEST,5198358,1714508903741,10,9,C000000010011,3,human,debug4ODuf:debugVvPfi,220,27,1,1,1
12,4619,0,1714510150753,0,C000000001101,2,2,3,6,0,1,TEST,5198358,1714508903741,10,9,C000000010011,3,human,debug4ODuf:debugVvPfi,27,16,0,0,0
12,9536,0,1714510160296,0,C000000011001,3,3,3,6,0,2,TEST,5198358,1714508903741,10,9,C000000010011,3,human,debug4ODuf:debugVvPfi,16,1,0,0,0
12,11087,0,1714510171389,0,C000000101001,4,4,3,6,0,1,TEST,5198358,1714508903741,10,9,C000000010011,3,human,debug4ODuf:debugVvPfi,1,1,0,0,0
12,6143,0,1714510177542,0,C000001001001,5,5,3,6,0,1,TEST,5198358,1714508903741,10,9,C000000010011,3,human,debug4ODuf:debugVvPfi,1,1,0,0,0
12,11836,0,1714510189383,0,C000010010001,6,6,3,6,0,2,TEST,5198358,1714508903741,10,9,C000000010011,3,human,debug4ODuf:debugVvPfi,1,1,0,0,0
12,5758,0,1714510195147,0,C000100010001,7,7,3,6,0,2,TEST,5198358,1714508903741,10,9,C000000010011,3,human,debug4ODuf:debugVvPfi,1,1,0,0,0
12,5200,0,1714510200352,0,C001000010001,8,8,3,6,0,2,TEST,5198358,1714508903741,10,9,C000000010011,3,human,debug4ODuf:debugVvPfi,1,1,0,0,0
12,5223,0,1714510205582,0,C010000010001,9,9,3,6,0,2,TEST,5198358,1714508903741,10,9,C000000010011,3,human,debug4ODuf:debugVvPfi,1,1,0,0,0
12,5288,0,1714510210877,0,C100000010001,10,10,3,6,0,2,TEST,5198358,1714508903741,10,9,C000000010011,3,human,debug4ODuf:debugVvPfi,1,1,0,0,0
12,14497,0,1714510225381,0,C000000010101,11,11,3,6,0,2,TEST,5198358,1714508903741,10,9,C000000010011,3,human,debug4ODuf:debugVvPfi,1,1,0,0,0
12,6261,0,1714510231650,0,C000000011001,12,12,3,6,0,2,TEST,5198358,1714508903741,10,9,C000000010011,3,human,debug4ODuf:debugVvPfi,1,1,1,0,1
12,8105,0,1714510239763,0,C000000010101,13,13,3,6,0,2,TEST,5198358,1714508903741,10,9,C000000010011,3,human,debug4ODuf:debugVvPfi,1,1,1,0,1
12,5591,1,1714510245361,0,C000000010011,14,14,3,6,0,3,TEST,5198358,1714508903741,10,9,C000000010011,3,human,debug4ODuf:debugVvPfi,1,1,0,0,0
12,4,0,1714510249722,4,C000000000111,1,0,3,6,1,1,TEST,5198358,1714508903741,10,10,C000011000010,3,model,debug4ODuf:debugVvPfi,220,108,1,1,1
12,6911,0,1714510256634,4,C000000011001,2,1,3,6,1,0,TEST,5198358,1714508903741,10,10,C000011000010,3,human,debug4ODuf:debugVvPfi,108,42,0,0,0
12,7561,0,1714510264201,4,C000000100110,3,2,3,6,1,1,TEST,5198358,1714508903741,10,10,C000011000010,3,human,debug4ODuf:debugVvPfi,42,30,0,0,0
12,11683,1,1714510275889,4,C000011000010,4,3,3,6,1,3,TEST,5198358,1714508903741,10,10,C000011000010,3,human,debug4ODuf:debugVvPfi,30,1,0,0,0
12,21537,0,1714509122947,0,C011100101100,1,1,6,6,0,2,TEST,9157610,1714508911069,10,1,C010000100010,3,human,debugUEnzr:debugip7cg,220,90,1,1,1
12,16550,0,1714509139503,0,C001101010110,2,2,6,6,0,1,TEST,9157610,1714508911069,10,1,C010000100010,3,human,debugUEnzr:debugip7cg,90,36,0,0,0
12,15645,0,1714509155158,0,C011000111100,3,3,6,6,0,2,TEST,9157610,1714508911069,10,1,C010000100010,3,human,debugUEnzr:debugip7cg,36,24,0,0,0
12,19897,0,1714509175062,0,C011001011100,4,4,6,6,0,1,TEST,9157610,1714508911069,10,1,C010000100010,3,human,debugUEnzr:debugip7cg,24,8,0,0,0
12,18785,0,1714509193853,0,C001001011110,5,5,6,6,0,1,TEST,9157610,1714508911069,10,1,C010000100010,3,human,debugUEnzr:debugip7cg,8,7,0,0,0
12,11817,0,1714509205677,0,C011001011100,6,6,6,6,0,1,TEST,9157610,1714508911069,10,1,C010000100010,3,human,debugUEnzr:debugip7cg,7,7,1,0,1
12,12161,0,1714509217845,0,C000000111111,7,7,6,6,0,2,TEST,9157610,1714508911069,10,1,C010000100010,3,human,debugUEnzr:debugip7cg,7,4,0,0,0
12,6784,0,1714509224639,0,C011100111000,8,8,6,6,0,2,TEST,9157610,1714508911069,10,1,C010000100010,3,human,debugUEnzr:debugip7cg,4,2,0,0,0
12,14112,0,1714509238764,0,C011000111000,9,9,5,6,0,2,TEST,9157610,1714508911069,10,1,C010000100010,3,human,debugUEnzr:debugip7cg,2,2,1,0,1
12,9355,0,1714509248124,0,C011000011100,10,10,5,6,0,1,TEST,9157610,1714508911069,10,1,C010000100010,3,human,debugUEnzr:debugip7cg,2,2,1,0,1
12,8475,0,1714509256604,0,C011101110000,11,11,6,6,0,2,TEST,9157610,1714508911069,10,1,C010000100010,3,human,debugUEnzr:debugip7cg,2,2,0,0,0
12,8951,0,1714509265564,0,C001101101100,12,12,6,6,0,1,TEST,9157610,1714508911069,10,1,C010000100010,3,human,debugUEnzr:debugip7cg,2,1,0,0,0
12,8398,0,1714509273972,0,C001101110100,13,13,6,6,0,1,TEST,9157610,1714508911069,10,1,C010000100010,3,human,debugUEnzr:debugip7cg,1,1,0,0,0
12,6923,0,1714509280900,0,C111001110000,14,14,6,6,0,2,TEST,9157610,1714508911069,10,1,C010000100010,3,human,debugUEnzr:debugip7cg,1,1,0,0,0
12,8662,0,1714509289572,0,C110101101000,15,15,6,6,0,2,TEST,9157610,1714508911069,10,1,C010000100010,3,human,debugUEnzr:debugip7cg,1,1,0,0,0
12,2,0,1714509292472,4,C000000000111,1,0,3,6,4,0,TEST,9157610,1714508911069,10,2,C011000001000,3,model,debugUEnzr:debugip7cg,220,84,1,1,1
12,11,0,1714509292483,4,C000111000000,2,0,3,6,4,0,TEST,9157610,1714508911069,10,2,C011000001000,3,model,debugUEnzr:debugip7cg,84,20,0,1,1
12,12,0,1714509292495,4,C000000011000,3,0,2,6,4,1,TEST,9157610,1714508911069,10,2,C011000001000,3,model,debugUEnzr:debugip7cg,20,12,0,1,1
12,11,0,1714509292506,4,C100000001000,4,0,2,6,4,1,TEST,9157610,1714508911069,10,2,C011000001000,3,model,debugUEnzr:debugip7cg,12,6,0,0,0
12,20986,0,1714509313492,4,C101010101010,5,1,6,6,4,2,TEST,9157610,1714508911069,10,2,C011000001000,3,human,debugUEnzr:debugip7cg,6,4,0,0,0
12,4175,0,1714509317674,4,C000000001010,6,2,2,6,4,1,TEST,9157610,1714508911069,10,2,C011000001000,3,human,debugUEnzr:debugip7cg,4,2,1,0,1
12,4464,0,1714509322147,4,C000000101000,7,3,2,6,4,1,TEST,9157610,1714508911069,10,2,C011000001000,3,human,debugUEnzr:debugip7cg,2,1,1,0,1
12,5466,0,1714509327622,4,C000010001000,8,4,2,6,4,1,TEST,9157610,1714508911069,10,2,C011000001000,3,human,debugUEnzr:debugip7cg,1,1,1,0,1
12,3938,0,1714509331563,4,C001000001000,9,5,2,6,4,2,TEST,9157610,1714508911069,10,2,C011000001000,3,human,debugUEnzr:debugip7cg,1,1,1,0,1
12,6544,0,1714509338117,4,C111000001000,10,6,4,6,4,3,TEST,9157610,1714508911069,10,2,C011000001000,3,human,debugUEnzr:debugip7cg,1,1,0,0,0
12,6988,1,1714509345114,4,C011000001000,11,7,3,6,4,3,TEST,9157610,1714508911069,10,2,C011000001000,3,human,debugUEnzr:debugip7cg,1,1,1,0,1
12,1,0,1714509350775,0,C101110100010,1,0,6,6,2,1,TEST,9157610,1714508911069,10,3,C000000010011,3,model,debugUEnzr:debugip7cg,220,90,1,1,1
12,11,0,1714509350786,0,C000111111000,2,0,6,6,2,1,TEST,9157610,1714508911069,10,3,C000000010011,3,model,debugUEnzr:debugip7cg,90,36,0,0,0
12,11184,0,1714509361971,0,C101000000000,3,1,2,6,2,0,TEST,9157610,1714508911069,10,3,C000000010011,3,human,debugUEnzr:debugip7cg,36,18,1,0,1
12,4305,0,1714509366284,0,C000110000000,4,2,2,6,2,0,TEST,9157610,1714508911069,10,3,C000000010011,3,human,debugUEnzr:debugip7cg,18,12,1,0,1
12,4618,0,1714509370907,0,C000001100000,5,3,2,6,2,0,TEST,9157610,1714508911069,10,3,C000000010011,3,human,debugUEnzr:debugip7cg,12,6,1,0,1
12,5343,0,1714509376258,0,C000000011000,6,4,2,6,2,1,TEST,9157610,1714508911069,10,3,C000000010011,3,human,debugUEnzr:debugip7cg,6,6,1,0,1
12,4018,0,1714509380283,0,C000000001110,7,5,3,6,2,1,TEST,9157610,1714508911069,10,3,C000000010011,3,human,debugUEnzr:debugip7cg,6,2,0,0,0
12,5039,0,1714509385330,0,C000000001111,8,6,4,6,2,2,TEST,9157610,1714508911069,10,3,C000000010011,3,human,debugUEnzr:debugip7cg,2,1,0,0,0
12,2769,0,1714509388107,0,C000000001001,9,7,2,6,2,1,TEST,9157610,1714508911069,10,3,C000000010011,3,human,debugUEnzr:debugip7cg,1,1,1,0,1
12,3472,0,1714509391587,0,C000000001010,10,8,2,6,2,1,TEST,9157610,1714508911069,10,3,C000000010011,3,human,debugUEnzr:debugip7cg,1,1,1,0,1
12,2615,0,1714509394211,0,C000000001100,11,9,2,6,2,0,TEST,9157610,1714508911069,10,3,C000000010011,3,human,debugUEnzr:debugip7cg,1,1,1,0,1
12,9824,0,1714509404042,0,C000000001001,12,10,2,6,2,1,TEST,9157610,1714508911069,10,3,C000000010011,3,human,debugUEnzr:debugip7cg,1,1,1,0,1
12,3816,0,1714509407867,0,C000000001010,13,11,2,6,2,1,TEST,9157610,1714508911069,10,3,C000000010011,3,human,debugUEnzr:debugip7cg,1,1,1,0,1
12,5996,0,1714509413875,0,C000000001100,14,12,2,6,2,0,TEST,9157610,1714508911069,10,3,C000000010011,3,human,debugUEnzr:debugip7cg,1,1,1,0,1
12,4062,0,1714509417947,0,C000000101010,15,13,3,6,2,1,TEST,9157610,1714508911069,10,3,C000000010011,3,human,debugUEnzr:debugip7cg,1,1,0,0,0
12,4015,0,1714509421970,0,C000001001000,16,14,2,6,2,0,TEST,9157610,1714508911069,10,3,C000000010011,3,human,debugUEnzr:debugip7cg,1,1,1,0,1
12,6052,0,1714509428027,0,C000010011110,17,15,5,6,2,2,TEST,9157610,1714508911069,10,3,C000000010011,3,human,debugUEnzr:debugip7cg,1,1,0,0,0
12,4376,0,1714509435146,4,C000001000000,1,1,1,6,0,1,TEST,9157610,1714508911069,10,4,C000001100010,3,human,debugUEnzr:debugip7cg,220,55,1,1,1
12,3525,0,1714509438679,4,C000001100000,2,2,2,6,0,2,TEST,9157610,1714508911069,10,4,C000001100010,3,human,debugUEnzr:debugip7cg,55,10,0,0,0
12,2254,0,1714509440938,4,C000001110000,3,3,3,6,0,2,TEST,9157610,1714508911069,10,4,C000001100010,3,human,debugUEnzr:debugip7cg,10,9,0,0,0
12,3145,0,1714509444090,4,C000011100000,4,4,3,6,0,2,TEST,9157610,1714508911069,10,4,C000001100010,3,human,debugUEnzr:debugip7cg,9,8,0,0,0
12,3729,0,1714509447826,4,C000101100000,5,5,3,6,0,2,TEST,9157610,1714508911069,10,4,C000001100010,3,human,debugUEnzr:debugip7cg,8,7,0,0,0
12,2969,0,1714509450802,4,C000001101000,6,6,3,6,0,2,TEST,9157610,1714508911069,10,4,C000001100010,3,human,debugUEnzr:debugip7cg,7,6,0,0,0
12,3629,0,1714509454438,4,C001001100000,7,7,3,6,0,2,TEST,9157610,1714508911069,10,4,C000001100010,3,human,debugUEnzr:debugip7cg,6,5,0,0,0
12,3640,0,1714509458083,4,C000001100100,8,8,3,6,0,2,TEST,9157610,1714508911069,10,4,C000001100010,3,human,debugUEnzr:debugip7cg,5,4,0,0,0
12,4242,0,1714509462335,4,C010001100000,9,9,3,6,0,2,TEST,9157610,1714508911069,10,4,C000001100010,3,human,debugUEnzr:debugip7cg,4,3,0,0,0
12,3377,1,1714509465717,4,C000001100010,10,10,3,6,0,3,TEST,9157610,1714508911069,10,4,C000001100010,3,human,debugUEnzr:debugip7cg,3,1,0,0,0
12,0,0,1714509470981,0,C010010011011,1,0,6,6,3,2,TEST,9157610,1714508911069,10,5,C110010000000,3,model,debugUEnzr:debugip7cg,220,90,1,1,1
12,11,0,1714509470993,0,C110001001101,2,0,6,6,3,2,TEST,9157610,1714508911069,10,5,C110010000000,3,model,debugUEnzr:debugip7cg,90,36,0,0,0
12,9,0,1714509471003,0,C000011001110,3,0,5,6,3,1,TEST,9157610,1714508911069,10,5,C110010000000,3,model,debugUEnzr:debugip7cg,36,15,0,0,0
12,31434,0,1714509502437,0,C010000000001,4,1,2,6,3,1,TEST,9157610,1714508911069,10,5,C110010000000,3,human,debugUEnzr:debugip7cg,15,14,1,0,1
12,9841,0,1714509512282,0,C010000001000,5,2,2,6,3,1,TEST,9157610,1714508911069,10,5,C110010000000,3,human,debugUEnzr:debugip7cg,14,7,1,0,1
12,3866,0,1714509516155,0,C000000001001,6,3,2,6,3,0,TEST,9157610,1714508911069,10,5,C110010000000,3,human,debugUEnzr:debugip7cg,7,4,1,0,1
12,22451,0,1714509538624,0,C010010000000,7,4,2,6,3,2,TEST,9157610,1714508911069,10,5,C110010000000,3,human,debugUEnzr:debugip7cg,4,1,1,0,1
12,2847,0,1714509541481,0,C010110000000,8,5,3,6,3,2,TEST,9157610,1714508911069,10,5,C110010000000,3,human,debugUEnzr:debugip7cg,1,1,0,0,0
12,3487,0,1714509544976,0,C010011000000,9,6,3,6,3,2,TEST,9157610,1714508911069,10,5,C110010000000,3,human,debugUEnzr:debugip7cg,1,1,0,0,0
12,3830,0,1714509548815,0,C010010100000,10,7,3,6,3,2,TEST,9157610,1714508911069,10,5,C110010000000,3,human,debugUEnzr:debugip7cg,1,1,0,0,0
12,4719,0,1714509553537,0,C010010010000,11,8,3,6,3,2,TEST,9157610,1714508911069,10,5,C110010000000,3,human,debugUEnzr:debugip7cg,1,1,1,0,1
12,4287,0,1714509557833,0,C010010001000,12,9,3,6,3,2,TEST,9157610,1714508911069,10,5,C110010000000,3,human,debugUEnzr:debugip7cg,1,1,1,0,1
12,5344,0,1714509563185,0,C010010000100,13,10,3,6,3,2,TEST,9157610,1714508911069,10,5,C110010000000,3,human,debugUEnzr:debugip7cg,1,1,0,0,0
12,5622,0,1714509568816,0,C010010000010,14,11,3,6,3,2,TEST,9157610,1714508911069,10,5,C110010000000,3,human,debugUEnzr:debugip7cg,1,1,1,0,1
12,11983,0,1714509580808,0,C011010000000,15,12,3,6,3,2,TEST,9157610,1714508911069,10,5,C110010000000,3,human,debugUEnzr:debugip7cg,1,1,0,0,0
12,6582,1,1714509587400,0,C110010000000,16,13,3,6,3,3,TEST,9157610,1714508911069,10,5,C110010000000,3,human,debugUEnzr:debugip7cg,1,1,0,0,0
12,0,0,1714509593242,0,C101011000011,1,0,6,6,2,1,TEST,9157610,1714508911069,10,6,C000010011000,3,model,debugUEnzr:debugip7cg,220,90,1,1,1
12,8,0,1714509593251,0,C100110100110,2,0,6,6,2,1,TEST,9157610,1714508911069,10,6,C000010011000,3,model,debugUEnzr:debugip7cg,90,36,0,0,0
12,12363,0,1714509605615,0,C100010000000,3,1,2,6,2,1,TEST,9157610,1714508911069,10,6,C000010011000,3,human,debugUEnzr:debugip7cg,36,6,1,0,1
12,9980,0,1714509615600,0,C101100000000,4,2,3,6,2,0,TEST,9157610,1714508911069,10,6,C000010011000,3,human,debugUEnzr:debugip7cg,6,3,0,0,0
12,4532,0,1714509620143,0,C000011000000,5,3,2,6,2,1,TEST,9157610,1714508911069,10,6,C000010011000,3,human,debugUEnzr:debugip7cg,3,3,1,0,1
12,3297,0,1714509623447,0,C000010110000,6,4,3,6,2,2,TEST,9157610,1714508911069,10,6,C000010011000,3,human,debugUEnzr:debugip7cg,3,2,0,0,0
12,3897,1,1714509627353,0,C000010011000,7,5,3,6,2,3,TEST,9157610,1714508911069,10,6,C000010011000,3,human,debugUEnzr:debugip7cg,2,1,0,0,0
12,1,0,1714509629755,4,C000000000111,1,0,3,6,4,0,TEST,9157610,1714508911069,10,7,C100001100000,3,model,debugUEnzr:debugip7cg,220,84,1,1,1
12,11,0,1714509629767,4,C000111000000,2,0,3,6,4,1,TEST,9157610,1714508911069,10,7,C100001100000,3,model,debugUEnzr:debugip7cg,84,45,0,1,1
12,17,0,1714509629784,4,C000000111000,3,0,3,6,4,1,TEST,9157610,1714508911069,10,7,C100001100000,3,model,debugUEnzr:debugip7cg,45,27,0,1,1
12,18,0,1714509629803,4,C000100100000,4,0,2,6,4,1,TEST,9157610,1714508911069,10,7,C100001100000,3,model,debugUEnzr:debugip7cg,27,12,0,0,0
12,20619,0,1714509650424,4,C000100100000,5,1,2,6,4,1,TEST,9157610,1714508911069,10,7,C100001100000,3,human,debugUEnzr:debugip7cg,12,12,1,0,1
12,9980,0,1714509660414,4,C000100010000,6,2,2,6,4,0,TEST,9157610,1714508911069,10,7,C100001100000,3,human,debugUEnzr:debugip7cg,12,6,0,0,0
12,5381,0,1714509665803,4,C000000101000,7,3,2,6,4,1,TEST,9157610,1714508911069,10,7,C100001100000,3,human,debugUEnzr:debugip7cg,6,6,1,0,1
12,5762,0,1714509671568,4,C000000001100,8,4,2,6,4,0,TEST,9157610,1714508911069,10,7,C100001100000,3,human,debugUEnzr:debugip7cg,6,6,0,0,0
12,4483,0,1714509676059,4,C000000100011,9,5,3,6,4,1,TEST,9157610,1714508911069,10,7,C100001100000,3,human,debugUEnzr:debugip7cg,6,6,0,0,0
12,6386,0,1714509682448,4,C111000100000,10,6,4,6,4,2,TEST,9157610,1714508911069,10,7,C100001100000,3,human,debugUEnzr:debugip7cg,6,6,0,0,0
12,8437,0,1714509690892,4,C001100100000,11,7,3,6,4,1,TEST,9157610,1714508911069,10,7,C100001100000,3,human,debugUEnzr:debugip7cg,6,4,0,0,0
12,9835,0,1714509700733,4,C011000101000,12,8,4,6,4,1,TEST,9157610,1714508911069,10,7,C100001100000,3,human,debugUEnzr:debugip7cg,4,2,0,0,0
12,5896,0,1714509706639,4,C100000100000,13,9,2,6,4,2,TEST,9157610,1714508911069,10,7,C100001100000,3,human,debugUEnzr:debugip7cg,2,2,1,0,1
12,22169,0,1714509728815,4,C100010100000,14,10,3,6,4,2,TEST,9157610,1714508911069,10,7,C100001100000,3,human,debugUEnzr:debugip7cg,2,1,0,0,0
12,3735,1,1714509732559,4,C100001100000,15,11,3,6,4,3,TEST,9157610,1714508911069,10,7,C100001100000,3,human,debugUEnzr:debugip7cg,1,1,0,0,0
12,2,0,1714509734976,4,C000000000111,1,0,3,6,3,0,TEST,9157610,1714508911069,10,8,C000001101000,3,model,debugUEnzr:debugip7cg,220,84,1,1,1
12,9,0,1714509734986,4,C000111000000,2,0,3,6,3,1,TEST,9157610,1714508911069,10,8,C000001101000,3,model,debugUEnzr:debugip7cg,84,45,0,1,1
12,9,0,1714509734995,4,C001001000000,3,0,2,6,3,1,TEST,9157610,1714508911069,10,8,C000001101000,3,model,debugUEnzr:debugip7cg,45,20,0,0,0
12,9718,0,1714509744713,4,C110001000000,4,1,3,6,3,1,TEST,9157610,1714508911069,10,8,C000001101000,3,human,debugUEnzr:debugip7cg,20,7,0,0,0
12,4211,0,1714509748927,4,C001101000000,5,2,3,6,3,1,TEST,9157610,1714508911069,10,8,C000001101000,3,human,debugUEnzr:debugip7cg,7,5,0,0,0
12,3263,0,1714509752197,4,C000011100000,6,3,3,6,3,2,TEST,9157610,1714508911069,10,8,C000001101000,3,human,debugUEnzr:debugip7cg,5,2,0,0,0
12,4209,0,1714509756413,4,C000001110000,7,4,3,6,3,2,TEST,9157610,1714508911069,10,8,C000001101000,3,human,debugUEnzr:debugip7cg,2,1,0,0,0
12,4680,1,1714509761101,4,C000001101000,8,5,3,6,3,3,TEST,9157610,1714508911069,10,8,C000001101000,3,human,debugUEnzr:debugip7cg,1,1,0,0,0
12,2,0,1714509762216,4,C000000000111,1,0,3,6,3,1,TEST,9157610,1714508911069,10,9,C000011000010,3,model,debugUEnzr:debugip7cg,220,108,1,1,1
12,11,0,1714509762227,4,C000000111000,2,0,3,6,3,0,TEST,9157610,1714508911069,10,9,C000011000010,3,model,debugUEnzr:debugip7cg,108,45,0,1,1
12,10,0,1714509762237,4,C000000000010,3,0,1,6,3,1,TEST,9157610,1714508911069,10,9,C000011000010,3,model,debugUEnzr:debugip7cg,45,15,1,0,1
12,10720,1,1714509772957,4,C000011000010,4,1,3,6,3,3,TEST,9157610,1714508911069,10,9,C000011000010,3,human,debugUEnzr:debugip7cg,15,1,0,0,0
12,0,0,1714509775133,0,C000011100111,1,0,6,6,1,3,TEST,9157610,1714508911069,10,10,C000000100110,3,model,debugUEnzr:debugip7cg,220,20,1,1,1
12,10543,0,1714509785677,0,C000000100101,2,1,3,6,1,2,TEST,9157610,1714508911069,10,10,C000000100110,3,human,debugUEnzr:debugip7cg,20,9,1,0,1
12,5139,0,1714509790825,0,C000001000101,3,2,3,6,1,1,TEST,9157610,1714508911069,10,10,C000000100110,3,human,debugUEnzr:debugip7cg,9,4,1,0,1
12,12498,0,1714509803325,0,C000010100100,4,3,3,6,1,2,TEST,9157610,1714508911069,10,10,C000000100110,3,human,debugUEnzr:debugip7cg,4,2,1,0,1
12,5803,0,1714509809137,0,C000100100100,5,4,3,6,1,2,TEST,9157610,1714508911069,10,10,C000000100110,3,human,debugUEnzr:debugip7cg,2,1,0,0,0
12,3008,0,1714509812148,0,C001000100100,6,5,3,6,1,2,TEST,9157610,1714508911069,10,10,C000000100110,3,human,debugUEnzr:debugip7cg,1,1,0,0,0
12,4464,0,1714509816620,0,C100000100100,7,6,3,6,1,2,TEST,9157610,1714508911069,10,10,C000000100110,3,human,debugUEnzr:debugip7cg,1,1,0,0,0
12,3344,0,1714509819968,0,C010000100100,8,7,3,6,1,2,TEST,9157610,1714508911069,10,10,C000000100110,3,human,debugUEnzr:debugip7cg,1,1,0,0,0
12,6674,0,1714509826643,0,C000000110100,9,8,3,6,1,2,TEST,9157610,1714508911069,10,10,C000000100110,3,human,debugUEnzr:debugip7cg,1,1,0,0,0
12,2967,0,1714509829612,0,C000000101100,10,9,3,6,1,2,TEST,9157610,1714508911069,10,10,C000000100110,3,human,debugUEnzr:debugip7cg,1,1,0,0,0
